"Time (s)","Linear Acceleration x (m/s^2)","Linear Acceleration y (m/s^2)","Linear Acceleration z (m/s^2)","Absolute acceleration (m/s^2)"
4.628041672E-3,1.417534826E-1,-1.830470860E-2,-5.493137509E-2,1.531227225E-1
1.464204167E-2,3.557446003E-3,-1.031647646E-1,-8.771525145E-2,1.354606564E-1
2.465704168E-2,2.568974197E-2,-1.062333834E-1,-2.517811060E-3,1.093244436E-1
3.467204167E-2,-5.775879622E-3,-6.653546691E-3,1.136640251E-1,1.140050046E-1
4.468704168E-2,-3.448687792E-3,8.049803317E-2,2.253475982E-1,2.393185467E-1
5.470204167E-2,3.167497018E-2,9.874193072E-2,2.295894608E-1,2.519217996E-1
6.471704168E-2,8.682239989E-2,4.481773853E-2,4.615879744E-2,1.080619886E-1
7.473204167E-2,1.367227027E-2,-6.356157303E-2,-3.495494753E-2,7.381634573E-2
8.474704168E-2,-1.197588520E-1,-3.356594145E-2,1.030025044E-1,1.614879902E-1
9.476104168E-2,-2.876652857E-2,1.193252993E-1,1.104191127E-1,1.651012437E-1
1.047760417E-1,-1.868505171E-2,-3.729178727E-2,-3.228510886E-2,5.274596486E-2
1.147910417E-1,-1.462328335E-2,-9.543123722E-2,4.740016133E-2,1.075534135E-1
1.248060417E-1,7.563696871E-2,-9.617617249E-2,1.597029546E-1,2.011860852E-1
1.348210417E-1,1.073326600E-1,-4.032122970E-2,2.108424103E-1,2.400012989E-1
1.448360417E-1,1.434786853E-1,-1.331586421E-2,1.190042871E-1,1.868835620E-1
1.548510417E-1,1.058196929E-1,-1.001043320E-2,5.479776621E-2,1.195859999E-1
1.648660417E-1,4.822608054E-2,-1.397835374E-2,1.540273547E-1,1.620048617E-1
1.748800417E-1,-3.419976136E-2,-2.920157969E-2,5.785088986E-2,7.327401580E-2
1.848950417E-1,1.263290942E-2,4.479084134E-2,-8.735740185E-3,4.735106150E-2
1.949100417E-1,5.671974599E-2,5.910891831E-2,7.611203671E-2,1.118214467E-1
2.049250417E-1,1.279516965E-2,-4.977734685E-3,7.518993080E-2,7.643310737E-2
2.149400417E-1,-2.096429637E-2,-2.428407133E-2,-3.545313030E-2,4.781362035E-2
2.249550417E-1,3.006640116E-2,-3.553411424E-2,-5.583535463E-2,7.269283720E-2
2.349700417E-1,7.509551654E-2,-1.402045369E-2,-6.227372378E-2,9.855925324E-2
2.449850417E-1,4.056973636E-2,-2.072604060E-2,1.650142729E-2,4.845378592E-2
2.549990417E-1,1.894889635E-1,5.321550965E-3,3.621701056E-1,4.087805910E-1
2.650140417E-1,1.774777958E-2,1.199263930E-3,5.026482922E-1,5.029629485E-1
2.750290417E-1,-4.146523744E-2,3.191761136E-2,2.676358312E-1,2.727032050E-1
2.850440417E-1,4.712828407E-2,9.522249162E-2,2.304571876E-1,2.537694099E-1
2.950590417E-1,-3.157611569E-2,1.091569912E-1,2.782458964E-1,3.005546185E-1
3.050740417E-1,-9.920095542E-2,1.659100664E-1,6.211011869E-1,6.504872512E-1
3.150890417E-1,5.313891113E-2,1.592723072E-1,1.212634174E0,1.224203027E0
3.251040417E-1,-2.816309592E-2,1.621473831E-1,1.758242252E0,1.765927730E0
3.351180417E-1,-9.103937527E-2,5.512795848E-1,2.123649960E0,2.195924977E0
3.451330417E-1,1.375867567E-1,5.228732264E-1,2.385262575E0,2.445772695E0
3.551480417E-1,-3.604311436E-1,-1.671789122E-1,1.896406403E0,1.937580099E0
3.651630417E-1,-1.822734994E0,-2.297734727E0,-2.125229878E0,3.621953860E0
3.751780417E-1,1.621199012E-2,-4.686052179E-1,-1.579792539E0,1.647907202E0
3.851930417E-1,-1.124752569E0,-1.267618466E0,3.075894757E0,3.511844739E0
3.952080417E-1,-2.270150194E0,-3.150023711E0,8.832089435E0,9.647903144E0
4.052230417E-1,9.311368416E-2,-2.607169379E0,1.204110395E0,2.873305444E0
4.152370417E-1,1.563740470E0,-2.490816804E0,-4.398030031E0,5.290758052E0
4.252520417E-1,2.274570105E0,-1.316177253E0,-3.963593602E0,4.755635180E0
4.352670417E-1,2.781859624E-1,-7.530243123E-1,-1.462093350E-1,8.159719445E-1
4.452820417E-1,-1.447121555E0,-1.414731488E0,3.131315252E0,3.728372458E0
4.552970417E-1,2.675992861E-1,-1.707832528E0,2.907264858E0,3.382379381E0
4.653120417E-1,1.784903508E0,-3.434351004E0,3.692236018E-1,3.888055223E0
4.753270417E-1,1.229388785E0,-5.767069037E0,-1.808861890E0,6.167857278E0
4.853410417E-1,3.606231662E0,-5.201933305E0,-2.225181305E-1,6.333603337E0
4.953560417E-1,3.488528088E0,-5.788427746E0,1.155118622E0,6.856385566E0
5.053710417E-1,2.549529866E0,-6.005343075E0,-1.261288855E0,6.644930215E0
5.153860417E-1,3.914661178E-1,-4.774555635E0,-1.401132619E0,4.991272368E0
5.254010417E-1,7.962438606E-1,-6.339523728E0,1.169326625E0,6.495451497E0
5.354160417E-1,-4.751384582E-1,-1.560181095E1,2.654655787E0,1.583317589E1
5.454310417E-1,-1.077720051E-1,-1.242568409E1,3.750080768E0,1.297968974E1
5.554450417E-1,2.881837949E0,-9.812621891E-1,-8.572228646E-1,3.162703983E0
5.654600417E-1,-1.931871520E0,6.772579629E0,-2.671384671E0,7.532347474E0
5.754750417E-1,-2.431764165E-1,2.155786550E1,-1.299001057E0,2.159833566E1
5.854900417E-1,3.459456609E0,2.010785425E1,-7.031459255E0,2.158089576E1
5.955050417E-1,-2.689108166E-1,8.043987091E0,-3.204111625E0,8.662815516E0
6.055200417E-1,-3.127955149E0,6.394094038E-1,2.615263095E0,4.127050867E0
6.155350417E-1,-2.529337091E0,-1.867215348E0,2.567926376E0,4.059345409E0
6.255500417E-1,-5.987665042E-1,-2.657385267E0,4.935495130E-1,2.768358522E0
6.355640417E-1,1.096265446E0,-2.673030662E0,-5.696954636E-1,2.944731527E0
6.455790417E-1,1.416104999E0,-3.399508615E0,-1.195966174E0,3.871995259E0
6.555940417E-1,1.871944137E0,-3.381984510E0,-2.565089307E0,4.639146175E0
6.656090417E-1,1.951066613E0,-2.653221465E0,-3.469077033E0,4.783381704E0
6.756240417E-1,1.327795086E0,-1.618584137E0,-3.758967952E0,4.302638081E0
6.856390417E-1,-1.861130735E-1,-7.107331556E-1,-3.339797434E0,3.419652993E0
6.956540417E-1,-2.087227654E0,-6.882172823E-4,-1.786195743E0,2.747183100E0
7.056680417E-1,-3.845366702E0,8.466417432E-1,-1.336176485E0,4.158006123E0
7.156830417E-1,-4.073163992E0,2.829141964E0,-2.811914313E0,5.701014932E0
7.256980417E-1,-2.803147582E0,6.595939338E0,-4.304204439E0,8.360037558E0
7.357130417E-1,-2.968542509E0,1.161183821E1,-4.827904462E0,1.292113357E1
7.457280417E-1,-2.516010702E0,1.582092717E1,-5.163637551E0,1.683137543E1
7.557430417E-1,-2.410885220E0,1.794936980E1,-4.388922408E0,1.863477619E1
7.657580417E-1,-2.380847635E0,1.784396789E1,-3.157771271E0,1.827695666E1
7.757720417E-1,-2.376402581E0,1.606799775E1,-1.963880932E0,1.636107177E1
7.857870417E-1,-2.326164766E0,1.411888572E1,-9.249125719E-1,1.433908783E1
7.958020417E-1,-2.066362157E0,1.217394275E1,-7.851173401E-2,1.234831562E1
8.058170417E-1,-1.344591067E0,1.006526254E1,7.101432446E-1,1.017947634E1
8.158320417E-1,-4.697137038E-1,7.936459134E0,1.147958267E0,8.032796695E0
8.258470000E-1,3.361051916E-1,5.804888243E0,1.763933200E0,6.076278018E0
8.358620000E-1,7.773106494E-1,3.489201980E0,2.604508896E0,4.422918594E0
8.458770000E-1,1.014520055E0,8.276833159E-1,2.605243306E0,2.915750898E0
8.558910000E-1,1.008647916E0,-1.979740920E0,2.028870395E0,3.008830306E0
8.659060000E-1,8.157585043E-1,-4.655522697E0,1.548474852E0,4.973643321E0
8.759210000E-1,4.044995615E-1,-7.104841812E0,1.519961489E0,7.276859212E0
8.859360000E-1,-1.993771168E-1,-8.963387493E0,1.507825009E0,9.091512682E0
8.959510000E-1,-8.293461909E-1,-1.006917783E1,1.399128778E0,1.019969209E1
9.059660000E-1,-1.305386217E0,-1.110825963E1,1.835373166E0,1.133428691E1
9.159810000E-1,-1.217793099E0,-1.242940760E1,2.154407777E0,1.267338417E1
9.259950000E-1,-4.953234851E-1,-1.311539593E1,1.909740393E0,1.326295834E1
9.360100000E-1,3.538849299E-1,-1.302670302E1,1.212338305E0,1.308778019E1
9.460250000E-1,1.075855009E0,-1.200143819E1,9.046028531E-1,1.208347173E1
9.560400000E-1,1.451086844E0,-1.037165313E1,9.859294367E-1,1.051897802E1
9.660550000E-1,1.381679517E0,-8.958088746E0,1.286889135E0,9.154915396E0
9.760700000E-1,1.331513184E0,-7.969350892E0,1.218559815E0,8.171191407E0
9.860850000E-1,1.202590704E0,-7.428172372E0,5.725371738E-1,7.546639517E0
9.960990000E-1,9.002800065E-1,-7.465854169E0,1.458330667E-1,7.521352926E0
1.006114000E0,6.173510751E-1,-7.875776145E0,2.757429957E-2,7.899983075E0
1.016129000E0,4.338329228E-1,-8.573182912E0,3.826527558E-2,8.584237909E0
1.026144000E0,1.984793499E-1,-9.320827201E0,-4.903241158E-2,9.323069127E0
1.036159000E0,1.300542822E-1,-9.811734284E0,-5.971294300E-1,9.830748056E0
1.046174000E0,-6.537333280E-3,-1.000721723E1,-1.208503554E0,1.007992660E1
1.056189000E0,-2.500178050E-1,-9.987204548E0,-1.536740659E0,1.010783535E1
1.066203000E0,-3.986815819E-1,-9.739551576E0,-1.511149735E0,9.864146463E0
1.076218000E0,-5.185717222E-1,-9.377989581E0,-6.891083980E-1,9.417562084E0
1.086233000E0,-4.747705952E-1,-8.780849115E0,1.716975673E-1,8.795350951E0
1.096248000E0,-1.710928190E-1,-7.853007672E0,6.443642613E-1,7.881256724E0
1.106263000E0,4.920358881E-1,-6.253531651E0,2.308840928E0,6.684272875E0
1.116278000E0,1.871052291E0,-3.465779203E0,3.506025589E0,5.273014089E0
1.126293000E0,2.657399593E0,2.825251812E-1,5.027973962E0,5.694042082E0
1.136307000E0,3.385987221E0,5.482003241E0,5.715765567E0,8.613201786E0
1.146322000E0,1.679599832E0,1.357979816E1,4.343174962E0,1.435601416E1
1.156337000E0,-2.738703372E0,2.647714206E1,-1.788869090E0,2.667844824E1
1.166352000E0,-5.127620457E0,3.118871149E1,-6.021552726E0,3.217588092E1
1.176367000E0,-2.888909279E0,2.254165953E1,-6.242424281E0,2.356777614E1
1.186382000E0,-4.894467410E-1,1.791829769E1,-6.524346614E0,1.907543051E1
1.196397000E0,-8.642175964E-1,1.846997898E1,-3.842160966E0,1.888515810E1
1.206411000E0,-2.450175001E0,2.029437575E1,-3.418330218E0,2.072558868E1
1.216426000E0,-4.452422585E0,2.180240541E1,-4.607307726E0,2.272435331E1
1.226441000E0,-4.741916770E0,1.951990970E1,-4.011482298E0,2.048425346E1
1.236456000E0,-3.617423233E0,1.456919734E1,-2.249494028E0,1.517917934E1
1.246471000E0,-2.084468207E0,1.099504584E1,-1.236604249E0,1.125900665E1
1.256486000E0,-7.611966732E-1,8.933461443E0,-5.891631103E-1,8.985169275E0
1.266500000E0,9.001057595E-2,6.880344983E0,1.647371149E-1,6.882905441E0
1.276515000E0,1.096721309E0,4.263174527E0,6.416781235E-1,4.448505984E0
1.286530000E0,1.848745748E0,9.112528914E-1,1.342476275E0,2.459773408E0
1.296545000E0,2.291692214E0,-2.763798745E0,2.069657063E0,4.144142501E0
1.306560000E0,2.346499628E0,-5.943019942E0,2.507013592E0,6.863720834E0
1.316575000E0,2.178285759E0,-8.314467008E0,2.423535233E0,8.930219118E0
1.326590000E0,1.618655181E0,-9.613914793E0,2.264584522E0,1.000878341E1
1.336604000E0,1.192656357E0,-1.058053555E1,2.813693036E0,1.101303910E1
1.346619000E0,1.194695866E0,-1.172965844E1,3.042220935E0,1.217650580E1
1.356634000E0,1.654799452E0,-1.269122487E1,2.668188583E0,1.307382041E1
1.366649000E0,2.062997085E0,-1.339246273E1,1.547382592E0,1.363848994E1
1.376664000E0,1.904221206E0,-1.304537903E1,7.160523677E-1,1.320305659E1
1.386679000E0,1.392815539E0,-1.133528363E1,2.197980424E-1,1.142264861E1
1.396694000E0,6.736113761E-1,-9.605382535E0,2.015723077E-1,9.631082874E0
1.406708000E0,3.978743738E-1,-8.896300634E0,5.517362523E-1,8.922268875E0
1.416723000E0,4.356090876E-1,-8.785082499E0,6.476586556E-1,8.819687722E0
1.426738000E0,4.124924129E-1,-8.838873374E0,5.762863719E-1,8.867239621E0
1.436753000E0,3.505291763E-1,-8.926962848E0,4.618575311E-1,8.945772676E0
1.446768000E0,3.759117202E-1,-9.078741948E0,4.223503069E-1,9.096331390E0
1.456783000E0,4.415143369E-1,-9.261572687E0,4.698683261E-1,9.283988356E0
1.466798000E0,5.970334625E-1,-9.358041220E0,5.763518608E-1,9.394762685E0
1.476812000E0,7.423185720E-1,-9.362400320E0,5.887607487E-1,9.410218692E0
1.486827000E0,6.189350127E-1,-9.328177151E0,5.031575116E-1,9.362218594E0
1.496842000E0,3.212951446E-1,-9.234976627E0,4.080163693E-1,9.249567624E0
1.506857000E0,8.452062517E-2,-8.954254727E0,5.515222442E-1,8.971621829E0
1.516872000E0,9.412036456E-2,-8.366345844E0,9.718423978E-1,8.423127630E0
1.526887000E0,3.640108822E-1,-7.521669935E0,3.625238987E-1,7.539193996E0
1.536901000E0,5.788726685E-1,-6.649570584E0,3.783348063E-1,6.685433400E0
1.546916000E0,1.438781086E0,-5.387864823E0,3.534209533E-1,5.587851531E0
1.556931000E0,2.483246414E0,-3.202418271E0,7.619627316E-2,4.053122427E0
1.566946000E0,2.432362335E0,5.854700089E-2,2.781332206E0,3.695351556E0
1.576961000E0,2.595048686E0,5.266259694E0,5.377911108E0,7.961764674E0
1.586976000E0,1.301572224E0,1.407645365E1,4.499482731E0,1.483529515E1
1.596991000E0,-4.734484667E0,2.712691741E1,-1.422695396E0,2.757370224E1
1.607005000E0,-9.490486502E0,3.060519211E1,-4.358956597E0,3.233802129E1
1.617020000E0,-5.694050762E0,2.181640833E1,-5.830049397E0,2.328878190E1
1.627035000E0,-2.053778657E0,1.728969511E1,-6.674911247E0,1.864687652E1
1.637050000E0,-1.377354332E0,1.763944749E1,-4.790995667E0,1.833032602E1
1.647065000E0,-2.208751068E0,1.923388613E1,-5.319876323E0,2.007789932E1
1.657080000E0,-3.710411503E0,2.051041400E1,-5.756753379E0,2.162370101E1
1.667094000E0,-3.566712086E0,1.870713971E1,-4.481641706E0,1.956434572E1
1.677109000E0,-2.715241712E0,1.475739114E1,-2.052329425E0,1.514480726E1
1.687124000E0,-1.820695046E0,1.204845215E1,-7.344675887E-1,1.220735730E1
1.697139000E0,-1.283574933E0,1.010376762E1,-5.601278108E-2,1.018512750E1
1.707154000E0,-6.788932391E-1,7.630459721E0,9.337360203E-1,7.717297101E0
1.717169000E0,-1.774724968E-1,4.162846831E0,1.559070007E0,4.448762694E0
1.727184000E0,5.027024520E-1,1.809964675E-1,1.980299914E0,2.051111217E0
1.737198000E0,1.259273905E0,-3.845823662E0,2.409595470E0,4.709806869E0
1.747213000E0,1.751282896E0,-7.070460768E0,2.540935628E0,7.714581073E0
1.757228000E0,1.718790210E0,-8.868040456E0,2.107626543E0,9.275692478E0
1.767243000E0,1.202170289E0,-9.304435701E0,1.669618635E0,9.529184829E0
1.777258000E0,8.224064230E-1,-9.582445078E0,1.856151831E0,9.795147044E0
1.787273000E0,1.118424420E0,-1.063927902E1,2.086382439E0,1.089945517E1
1.797287000E0,1.760922615E0,-1.222861305E1,1.567668922E0,1.245381112E1
1.807302000E0,2.306169335E0,-1.362024803E1,1.209777315E-1,1.381463749E1
1.817316792E0,2.187504479E0,-1.380198417E1,-5.367720580E-1,1.398456532E1
1.827331792E0,1.565197304E0,-1.226919038E1,-1.628706837E-1,1.236969693E1
1.837346792E0,8.387696368E-1,-1.021558276E1,1.671087456E-1,1.025132142E1
1.847361792E0,4.235018429E-1,-8.954168188E0,4.220052481E-1,8.974105536E0
1.857375792E0,1.281434486E-1,-8.443030908E0,8.023186791E-1,8.482034362E0
1.867390792E0,-7.877716105E-2,-8.419565447E0,8.573982811E-1,8.463475644E0
1.877405792E0,-1.143092288E-1,-8.586056727E0,4.921683276E-1,8.600910787E0
1.887420792E0,-1.321561369E-1,-8.858948035E0,9.158961654E-2,8.860407112E0
1.897435792E0,-2.191268186E-1,-9.272919794E0,-4.780451456E-2,9.275631695E0
1.907450792E0,-2.320230354E-1,-9.645969813E0,-4.973172029E-2,9.648888100E0
1.917465792E0,-1.254136395E-1,-9.748815320E0,1.609551724E-1,9.750950482E0
1.927479792E0,-1.292775161E-1,-9.547824883E0,3.243544078E-1,9.554207370E0
1.937494792E0,-1.943318833E-1,-9.165696477E0,3.206940508E-1,9.173363694E0
1.947509792E0,-3.380742780E-1,-8.834910716E0,4.387399793E-1,8.852255891E0
1.957524792E0,-1.498398712E-1,-8.420691036E0,6.985013652E-1,8.450940401E0
1.967539792E0,4.842149448E-1,-7.898185015E0,-3.975404978E-1,7.922993695E0
1.977554792E0,9.240249646E-1,-7.152187886E0,-1.295022612E0,7.326984186E0
1.987568792E0,1.610144851E0,-5.662195131E0,1.093242216E-1,5.887696657E0
1.997583792E0,2.593215876E0,-3.581435959E0,1.717901434E0,4.743694493E0
2.007598792E0,2.972649886E0,-5.490751845E-1,3.505392920E0,4.628813069E0
2.017613792E0,3.297453944E0,4.693872830E0,4.288663709E0,7.162281834E0
2.027628792E0,2.528515558E0,1.224747733E1,3.045314112E0,1.287120934E1
2.037643792E0,-3.536005140E0,2.371998809E1,-5.825078094E-1,2.398917428E1
2.047657792E0,-9.112564582E0,3.364673360E1,-4.610676892E0,3.516247797E1
2.057672792E0,-6.014291069E0,2.714864332E1,-5.918515431E0,2.842972663E1
2.067687792E0,-5.439509039E-1,1.814103334E1,-5.248304064E0,1.889279410E1
2.077702792E0,3.272062410E-1,1.691912197E1,-5.139024282E0,1.768539858E1
2.087717792E0,-1.899639036E0,1.799886414E1,-6.239973128E0,1.914432039E1
2.097732792E0,-3.829364043E0,1.900433731E1,-5.213107334E0,2.007499324E1
2.107746792E0,-4.061978853E0,1.790428893E1,-2.962519877E0,1.859676742E1
2.117761792E0,-3.180936478E0,1.430154338E1,-1.376731603E0,1.471556624E1
2.127776792E0,-1.913586984E0,1.172699796E1,-4.362163210E-1,1.189010433E1
2.137791792E0,-1.050195892E0,1.012321897E1,4.872975969E-1,1.018920668E1
2.147806792E0,-3.063341662E-1,8.207410337E0,1.361643448E0,8.325232606E0
2.157821792E0,3.176757181E-1,5.404746904E0,1.956576591E0,5.756769833E0
2.167835792E0,9.682538154E-1,1.929295821E0,2.521471417E0,3.319264365E0
2.177850792E0,1.714551564E0,-1.881716443E0,2.943883631E0,3.891914011E0
2.187865792E0,2.334754326E0,-5.313677689E0,2.769111525E0,6.430725230E0
2.197880792E0,2.397380345E0,-7.672476643E0,2.091346725E0,8.305905218E0
2.207895792E0,1.923154491E0,-8.905479593E0,2.278336004E0,9.391320723E0
2.217910792E0,1.664464022E0,-1.006037660E1,2.773246676E0,1.056752171E1
2.227925792E0,2.007787090E0,-1.144698649E1,2.821881477E0,1.195941988E1
2.237939792E0,2.804763460E0,-1.278946745E1,1.597053519E0,1.319044183E1
2.247954792E0,3.236339139E0,-1.375468137E1,-5.088831782E-1,1.413945235E1
2.257969792E0,2.844679478E0,-1.371983430E1,-1.033407658E0,1.404969701E1
2.267984792E0,1.704841970E0,-1.234020482E1,-1.892392874E-1,1.245885037E1
2.277999792E0,6.640668198E-1,-1.044232492E1,9.750056684E-2,1.046387313E1
2.288014792E0,1.396239084E-1,-9.132487800E0,-2.898581743E-2,9.133601066E0
2.298028792E0,-2.249633996E-1,-8.614651950E0,2.053694165E-1,8.620035577E0
2.308043792E0,-4.668408206E-1,-8.737679121E0,6.169888401E-1,8.771867077E0
2.318058792E0,-3.852637569E-1,-8.980633271E0,4.919508111E-1,9.002345123E0
2.328073792E0,-2.318508349E-1,-9.198260790E0,1.887995768E-1,9.203119126E0
2.338088792E0,-5.745941877E-2,-9.355290105E0,2.383442044E-2,9.355496920E0
2.348103792E0,5.295238495E-2,-9.401291905E0,-5.342250109E-2,9.401592812E0
2.358117792E0,1.048019119E-1,-9.298282092E0,4.457564553E-2,9.298979529E0
2.368132792E0,4.177302025E-2,-9.167517300E0,2.998031004E-1,9.172513305E0
2.378147792E0,-1.157167632E-1,-9.031637363E0,5.382935035E-1,9.048404485E0
2.388162792E0,-6.141389072E-2,-8.950991396E0,6.112913132E-1,8.972050808E0
2.398177792E0,1.638289692E-1,-8.669512281E0,5.232614815E-1,8.686834044E0
2.408192792E0,5.730198249E-1,-7.937275406E0,3.534817278E-1,7.965779429E0
2.418206792E0,1.109569104E0,-7.220945295E0,-8.098510623E-2,7.306144889E0
2.428221792E0,1.583193280E0,-6.562720721E0,2.488925815E-1,6.755571903E0
2.438236792E0,2.636686416E0,-5.220743213E0,1.142514364E0,5.959329998E0
2.448251792E0,3.694803823E0,-2.941163507E0,2.001865030E0,5.129276914E0
2.458266792E0,3.940533353E0,8.151006925E-1,5.115934796E0,6.508838690E0
2.468281792E0,3.882512017E0,7.310794780E0,5.737622459E0,1.007183853E1
2.478295792E0,1.658677471E-1,1.861250252E1,1.493622122E0,1.867307338E1
2.488310792E0,-8.085529804E0,3.370077591E1,-5.897640871E0,3.515537309E1
2.498325792E0,-1.162591363E1,3.190461417E1,-6.125434359E0,3.450488689E1
2.508340792E0,-5.544864317E0,1.886293760E1,-4.155567048E0,2.009538934E1
2.518355792E0,5.900483787E-2,1.443520371E1,-4.177925631E0,1.502776266E1
2.528370792E0,-3.875963574E-1,1.567912400E1,-4.874626054E0,1.642398062E1
2.538384792E0,-1.553010245E0,1.771775808E1,-6.265475174E0,1.885701385E1
2.548399792E0,-2.693664024E0,1.934303143E1,-6.469603812E0,2.057339214E1
2.558414792E0,-2.917085842E0,1.742579023E1,-4.318443578E0,1.818836193E1
2.568429792E0,-2.633179548E0,1.321408055E1,-2.468970437E0,1.369822523E1
2.578444792E0,-1.897910599E0,1.087243558E1,-7.557467759E-1,1.106268833E1
2.588459792E0,-1.369658226E0,9.534832370E0,6.482223272E-1,9.654490363E0
2.598473792E0,-9.731000608E-1,7.826191757E0,1.617211211E0,8.050563536E0
2.608488792E0,-6.554087014E-1,5.487552833E0,2.547190980E0,6.085308418E0
2.618503792E0,-2.655314914E-1,2.389747097E0,3.102106948E0,3.924852313E0
2.628518792E0,4.709245891E-1,-1.063097481E0,3.132201397E0,3.341052501E0
2.638533792E0,1.318153904E0,-4.489978666E0,3.143376596E0,5.637220464E0
2.648547792E0,1.583746718E0,-7.491875448E0,2.817789595E0,8.159435617E0
2.658562792E0,9.769381001E-1,-9.164848046E0,2.393019783E0,9.522362702E0
2.668577792E0,4.908462721E-1,-1.028524532E1,2.405201873E0,1.057412868E1
2.678592792E0,7.828391918E-1,-1.161587045E1,2.355373070E0,1.187809185E1
2.688607792E0,1.632434437E0,-1.323142106E1,2.005358741E0,1.348172129E1
2.698622792E0,2.362228054E0,-1.442280294E1,7.454860818E-1,1.463397128E1
2.708636792E0,2.571188245E0,-1.436078503E1,-3.311046163E-2,1.458918271E1
2.718651792E0,2.208993874E0,-1.270630835E1,-2.137718836E-1,1.289866753E1
2.728666792E0,1.523180674E0,-1.056721910E1,5.337320175E-3,1.067643327E1
2.738681792E0,9.554265592E-1,-9.152293489E0,4.782846987E-1,9.214449103E0
2.748696792E0,4.679921374E-1,-8.557041673E0,7.466964555E-1,8.602298206E0
2.758711792E0,8.760123074E-2,-8.529438137E0,8.807204854E-1,8.575235127E0
2.768725792E0,-2.513922662E-1,-8.692650883E0,8.306472695E-1,8.735865861E0
2.778740792E0,-4.490892586E-1,-8.846222155E0,7.241554391E-1,8.887166516E0
2.788755792E0,-5.260470585E-1,-9.053971973E0,5.059993680E-1,9.083345714E0
2.798770792E0,-5.101245421E-1,-9.210969713E0,1.017240107E-1,9.225645662E0
2.808785792E0,-3.765177841E-1,-9.247775012E0,-3.016836198E-1,9.260352117E0
2.818800667E0,-3.295342369E-1,-9.268088239E0,-4.728409775E-1,9.285991117E0
2.828814667E0,-2.790591345E-1,-9.211873108E0,-3.420538565E-1,9.222444416E0
2.838829667E0,-1.440179813E-1,-8.933769591E0,1.733513061E-1,8.936611828E0
2.848844667E0,1.060511696E-1,-8.241086791E0,2.268017642E-1,8.244889167E0
2.858859667E0,4.281513661E-1,-7.426524042E0,2.590674676E-2,7.438900732E0
2.868874667E0,9.739949041E-1,-6.638245697E0,7.960165501E-1,6.756375830E0
2.878889667E0,2.407229395E0,-5.224422281E0,1.012403290E0,5.840744983E0
2.888903667E0,3.693912415E0,-3.158644845E0,1.681004333E0,5.142742630E0
2.898918667E0,3.915029845E0,-2.505654699E-1,3.635485282E0,5.348550736E0
2.908933667E0,3.767619199E0,4.756758465E0,3.645806787E0,7.079096881E0
2.918948667E0,1.124884789E0,1.380462361E1,1.011696947E0,1.388727941E1
2.928963667E0,-6.101567779E0,2.856463079E1,-4.069886627E0,2.949120613E1
2.938977667E0,-9.653729653E0,3.640722048E1,-6.209820206E0,3.817384008E1
2.948992667E0,-4.291754547E0,2.761324203E1,-4.936456851E0,2.837743644E1
2.959007667E0,-9.594461545E-1,1.918161085E1,-3.937348959E0,1.960503631E1
2.969022667E0,-8.686520516E-1,1.794177894E1,-4.070124024E0,1.841814045E1
2.979037667E0,-2.386983995E0,1.864295131E1,-4.826187719E0,1.940488120E1
2.989052667E0,-3.167609797E0,1.888571718E1,-4.678488221E0,1.971274505E1
2.999066667E0,-3.030308695E0,1.621772741E1,-3.565687069E0,1.687932396E1
3.009081667E0,-2.632980451E0,1.255492393E1,-2.017349042E0,1.298569976E1
3.019096667E0,-1.936671645E0,1.011925924E1,-8.999436454E-1,1.034214693E1
3.029111667E0,-1.264756254E0,8.060351694E0,9.566395640E-2,8.159536102E0
3.039126667E0,-4.733355423E-1,5.484219920E0,8.878517497E-1,5.575750658E0
3.049141667E0,1.961767164E-1,2.187278484E0,1.751767337E0,2.809156684E0
3.059155667E0,8.442522054E-1,-1.681434104E0,2.332504610E0,2.996758280E0
3.069170667E0,1.365409347E0,-5.406130940E0,2.461967812E0,6.095234198E0
3.079185667E0,1.253673734E0,-7.837800819E0,2.295915073E0,8.262810994E0
3.089200667E0,5.169865420E-1,-8.823107527E0,1.983280824E0,9.058029827E0
3.099215667E0,-8.211007398E-2,-9.228958672E0,2.267572449E0,9.503804767E0
3.109230667E0,2.044552409E-1,-9.921599958E0,2.784364572E0,1.030692164E1
3.119244667E0,1.024160652E0,-1.134121036E1,2.687230625E0,1.170013530E1
3.129259667E0,2.009125225E0,-1.303167900E1,8.864191818E-1,1.321540694E1
3.139274667E0,2.338701781E0,-1.380401199E1,-5.855366671E-1,1.401296279E1
3.149289667E0,1.904279971E0,-1.296736547E1,-4.071884036E-1,1.311276675E1
3.159304667E0,1.039260429E0,-1.099455467E1,4.048822618E-1,1.105098296E1
3.169319667E0,5.570987338E-1,-9.601935017E0,6.738050652E-1,9.641655892E0
3.179333667E0,6.360244507E-1,-9.213108040E0,8.004253507E-1,9.269658440E0
3.189348667E0,6.657744992E-1,-9.229027669E0,7.047111082E-1,9.279807388E0
3.199363667E0,4.757247877E-1,-9.465810667E0,4.789828563E-1,9.489853015E0
3.209378667E0,1.887323703E-1,-9.699945461E0,3.196357413E-1,9.707045321E0
3.219393667E0,-1.264905139E-1,-9.793378120E0,1.838960652E-1,9.795921223E0
3.229407667E0,-4.491079697E-1,-9.692197316E0,1.404922199E-1,9.703614009E0
3.239422667E0,-6.690884086E-1,-9.537234406E0,1.117309356E-1,9.561328528E0
3.249437667E0,-7.030811968E-1,-9.301578167E0,2.064628458E-1,9.330396909E0
3.259452667E0,-5.028456357E-1,-9.145561005E0,2.540007091E-1,9.162895622E0
3.269467667E0,-1.533131173E-1,-8.969373288E0,4.579539299E-1,8.982365161E0
3.279482667E0,9.176148813E-2,-8.611060005E0,6.863239539E-1,8.638854968E0
3.289496667E0,5.004421012E-1,-7.935574450E0,6.739758039E-1,7.979851348E0
3.299511667E0,1.138190932E0,-6.891959893E0,1.324376804E0,7.109751309E0
3.309526667E0,1.887007881E0,-5.444088140E0,2.011510012E0,6.102873663E0
3.319541667E0,3.140226701E0,-3.540354592E0,2.147165415E0,5.196677178E0
3.329556667E0,3.982819540E0,-1.315559787E0,3.225023607E0,5.290966481E0
3.339570667E0,4.480979509E0,2.376718916E0,3.517389067E0,6.172519422E0
3.349585667E0,3.394115728E0,8.347793214E0,1.537034190E0,9.141561530E0
3.359600667E0,-8.013822475E-1,1.844536220E1,-2.638835560E0,1.865039017E1
3.369615667E0,-7.698526574E0,2.991240465E1,-3.952880334E0,3.113911569E1
3.379630667E0,-1.034958106E1,3.099821622E1,-3.926788888E0,3.291539014E1
3.389645667E0,-6.697080966E0,2.288341526E1,-3.640938395E0,2.411966044E1
3.399659667E0,-3.293106540E0,1.889177724E1,-5.354773675E0,1.991023352E1
3.409674667E0,-2.917565606E0,1.808661213E1,-6.414345285E0,1.941086173E1
3.419689667E0,-2.893448473E0,1.771736280E1,-5.071396555E0,1.865465228E1
3.429704667E0,-2.553958547E0,1.713629107E1,-4.144317005E0,1.781433522E1
3.439719667E0,-2.021303514E0,1.507161233E1,-3.306701024E0,1.556192269E1
3.449733667E0,-1.315788706E0,1.252187664E1,-2.358531736E0,1.280981524E1
3.459748667E0,-1.214360710E-1,1.043716066E1,-1.266194669E0,1.051438625E1
3.469763667E0,5.893865470E-1,8.367870213E0,-7.917828005E-2,8.388974765E0
3.479778667E0,8.461509425E-1,5.880353578E0,1.384183295E0,6.100040411E0
3.489793667E0,9.109766836E-1,2.894827246E0,2.484527539E0,3.922088780E0
3.499808667E0,8.692900559E-1,-3.957173359E-1,2.589518974E0,2.760048175E0
3.509822667E0,7.798481217E-1,-3.602965992E0,2.457820966E0,4.430621958E0
3.519837667E0,3.919435430E-1,-6.133845579E0,2.621994410E0,6.682255309E0
3.529852667E0,-3.956754553E-1,-7.846475163E0,2.763178940E0,8.328198449E0
3.539867667E0,-6.649169319E-1,-9.402411062E0,3.322488506E0,9.994317294E0
3.549882667E0,-1.075811301E-1,-1.104348184E1,3.945704631E0,1.172768732E1
3.559896667E0,1.012434281E0,-1.256770361E1,3.294225404E0,1.303165830E1
3.569911667E0,2.081555270E0,-1.365622244E1,1.196865402E0,1.386570483E1
3.579926667E0,2.750218294E0,-1.368403999E1,-3.007702482E-1,1.396091379E1
3.589941667E0,2.833504280E0,-1.228885457E1,-2.846073381E-1,1.261450334E1
3.599956667E0,2.207670356E0,-1.042898391E1,9.466053765E-2,1.066051004E1
3.609971667E0,1.523722711E0,-9.166754238E0,4.076129480E-1,9.301465609E0
3.619985667E0,9.238407773E-1,-8.839581472E0,5.621899045E-1,8.905489311E0
3.630000667E0,5.046401462E-1,-9.045708103E0,5.116641140E-1,9.074210540E0
3.640015667E0,9.737898130E-2,-9.227208601E0,5.691668387E-1,9.245258899E0
3.650030667E0,-2.497562152E-1,-9.414503104E0,8.267272961E-1,9.454032203E0
3.660045667E0,-4.720971751E-1,-9.538823680E0,1.003411442E0,9.603065524E0
3.670059667E0,-5.194764692E-1,-9.437848697E0,1.102565163E0,9.516222663E0
3.680074667E0,-3.953895995E-1,-9.063603507E0,1.202781615E0,9.151607786E0
3.690089667E0,-8.836575419E-2,-8.902768824E0,1.247264893E0,8.990148550E0
3.700104667E0,2.919737700E-1,-9.148881054E0,1.298159058E0,9.245133323E0
3.710119667E0,5.595314679E-1,-9.193568984E0,1.283069733E0,9.299519024E0
3.720134667E0,6.238979101E-1,-9.030194271E0,9.216170812E-1,9.098518298E0
3.730148667E0,6.727762476E-1,-8.616031893E0,6.122268677E-1,8.663916851E0
3.740163667E0,8.771989998E-1,-7.956502805E0,2.964631891E-1,8.010200084E0
3.750178667E0,1.155028501E0,-7.389619925E0,1.228307050E0,7.579532419E0
3.760193667E0,2.167687388E0,-6.205867488E0,1.966921484E0,6.861518784E0
3.770208667E0,3.555104193E0,-3.933771633E0,2.307271535E0,5.782458562E0
3.780222667E0,4.389940993E0,-6.813052887E-1,3.642639935E0,5.744961663E0
3.790237667E0,4.901010152E0,4.274537421E0,2.301490978E0,6.898436881E0
3.800252667E0,4.018392245E0,1.254142388E1,-7.031685396E-1,1.318822335E1
3.810267667E0,-2.024541117E0,2.683632716E1,-3.419168708E0,2.712891330E1
3.820283375E0,-9.626310890E0,3.729689306E1,-3.917328093E0,3.871781957E1
3.830297375E0,-8.841131569E0,2.771855038E1,-2.727632546E0,2.922197156E1
3.840312375E0,-4.523527066E0,1.785226041E1,-4.141474088E0,1.887636899E1
3.850327375E0,-2.822559754E0,1.706680627E1,-3.794894414E0,1.770999558E1
3.860342375E0,-4.247880842E0,1.816042738E1,-4.169553587E0,1.911101231E1
3.870357375E0,-4.734183827E0,1.954125906E1,-4.074443947E0,2.051522350E1
3.880372375E0,-3.225150784E0,1.768346766E1,-3.609427750E0,1.833397379E1
3.890386375E0,-1.475077970E0,1.496468079E1,-2.581449816E0,1.525717566E1
3.900401375E0,7.745514214E-3,1.217831413E1,-2.045908012E0,1.234897302E1
3.910416375E0,8.977864614E-1,9.758034625E0,-1.502250273E0,9.913728671E0
3.920431375E0,1.239803846E0,7.191292310E0,-6.077747246E-1,7.322649028E0
3.930446375E0,1.255894214E0,3.978413370E0,3.938848186E-1,4.190487856E0
3.940460375E0,1.180114153E0,1.549319190E-1,1.241596748E0,1.719952266E0
3.950475375E0,1.133833660E0,-3.698995399E0,1.593650440E0,4.184240368E0
3.960490375E0,9.162767460E-1,-7.003679134E0,1.724357929E0,7.270797394E0
3.970505375E0,3.370103406E-1,-8.998124047E0,1.581599329E0,9.142279189E0
3.980520375E0,-5.717685939E-1,-9.733512572E0,1.452509179E0,9.857888680E0
3.990534375E0,-1.212926169E0,-1.020286740E1,1.850758359E0,1.044006703E1
4.000549375E0,-1.114825751E0,-1.098991315E1,2.704440150E0,1.137255574E1
4.010564375E0,-3.506717753E-2,-1.185115072E1,2.767260296E0,1.216999312E1
4.020579375E0,1.095098415E0,-1.258740171E1,2.060045410E0,1.280178540E1
4.030594375E0,1.878777047E0,-1.249336912E1,1.711616846E0,1.274926302E1
4.040609375E0,2.358108398E0,-1.128841001E1,1.589826361E0,1.164115216E1
4.050623375E0,2.482592988E0,-9.988190389E0,9.766674471E-1,1.033833132E1
4.060638375E0,2.170741681E0,-9.387419971E0,4.424167085E-1,9.645284117E0
4.070653375E0,1.544403143E0,-9.223455273E0,2.526160884E-1,9.355272478E0
4.080668375E0,9.563860872E-1,-9.316104990E0,1.933230193E-1,9.367062523E0
4.090683375E0,4.635757719E-1,-9.386776777E0,2.051671394E-1,9.400456069E0
4.100697375E0,7.014469732E-2,-9.467915665E0,1.979668780E-1,9.470244886E0
4.110712375E0,-1.040088102E-1,-9.463234384E0,7.045427084E-2,9.464068187E0
4.120727375E0,-3.319606852E-2,-9.340127106E0,1.144382330E-1,9.340887133E0
4.130742375E0,2.505447853E-2,-9.225425785E0,2.835268823E-1,9.229815606E0
4.140757375E0,4.615704328E-2,-9.013189398E0,2.137964237E-1,9.015842862E0
4.150771375E0,-6.684134938E-2,-8.767098802E0,2.394193612E-2,8.767386292E0
4.160786375E0,-2.080456871E-1,-8.686594337E0,2.022703922E-1,8.691439323E0
4.170801375E0,-6.457602840E-2,-8.620385730E0,5.006281523E-1,8.635151923E0
4.180816375E0,3.096562983E-1,-8.214476112E0,9.900728468E-1,8.279719141E0
4.190831375E0,8.503684661E-1,-7.499717149E0,7.395195830E-1,7.583915417E0
4.200846375E0,1.656142265E0,-6.496643676E0,6.179127733E-1,6.732830196E0
4.210860375E0,2.735680069E0,-4.992978376E0,1.700979592E0,5.941978633E0
4.220875375E0,3.082483692E0,-3.128155124E0,2.105385890E0,4.870288486E0
4.230890375E0,2.305346924E0,1.639799005E-1,3.601709425E0,4.279465461E0
4.240905375E0,1.942369903E0,6.200207384E0,1.910824467E0,6.772490132E0
4.250920375E0,-9.255431210E-1,1.578932063E1,-3.724932917E-1,1.582080994E1
4.260934375E0,-6.435032149E0,2.979462301E1,-2.337019830E0,3.057107883E1
4.270949375E0,-6.673706721E0,3.599440706E1,-4.275972912E0,3.685674491E1
4.280964375E0,-2.167194760E0,2.566158412E1,-5.812036464E0,2.640063258E1
4.290979375E0,1.068779878E0,2.035039208E1,-6.758068010E0,2.146979812E1
4.300994375E0,6.129106995E-1,2.046303752E1,-6.171261327E0,2.138214279E1
4.311008375E0,-2.244890223E0,2.080952949E1,-6.170405295E0,2.182086046E1
4.321023375E0,-4.273410078E0,1.863840686E1,-5.875228493E0,2.000426339E1
4.331038375E0,-4.191892582E0,1.504560040E1,-4.079310877E0,1.614257824E1
4.341053375E0,-3.214845943E0,1.221165612E1,-3.224678621E0,1.303297095E1
4.351068375E0,-2.244213408E0,1.003992421E1,-1.920022137E0,1.046532642E1
4.361082375E0,-1.437427456E0,7.826988732E0,-5.039515635E-1,7.973827029E0
4.371097375E0,-3.964546698E-1,5.268816682E0,7.226386714E-1,5.332899041E0
4.381112375E0,6.197697759E-1,2.210750377E0,1.486646394E0,2.735260372E0
4.391127375E0,1.565130938E0,-1.175251170E0,2.369282427E0,3.073166019E0
4.401142375E0,2.227832141E0,-4.437832612E0,2.600510570E0,5.605376844E0
4.411157375E0,2.072136575E0,-6.738358215E0,2.195741744E0,7.383800053E0
4.421171375E0,1.290953827E0,-7.677111731E0,2.148716097E0,8.075988310E0
4.431186375E0,6.053335486E-1,-8.205472569E0,3.096057419E0,8.791005650E0
4.441201375E0,4.760083411E-1,-9.292910839E0,3.934839334E0,1.010285783E1
4.451216375E0,9.408602679E-1,-1.096127466E1,3.544758714E0,1.155854985E1
4.461231375E0,1.781541067E0,-1.250725041E1,1.615229005E0,1.273633253E1
4.471245375E0,2.091868882E0,-1.307706392E1,2.022293886E-1,1.324486364E1
4.481260375E0,1.730988964E0,-1.295327602E1,1.155515063E-1,1.306893395E1
4.491275375E0,1.104875252E0,-1.229655652E1,6.190037906E-1,1.236160254E1
4.501290375E0,6.113058947E-1,-1.121760139E1,6.358039375E-1,1.125222301E1
4.511305375E0,1.607770516E-1,-1.032353522E1,1.181253775E-1,1.032546282E1
4.521319375E0,-2.173301519E-1,-9.848753006E0,-7.854678076E-2,9.851463738E0
4.531334375E0,-5.230120978E-1,-9.636856928E0,8.248433232E-2,9.651391442E0
4.541349375E0,-6.322398403E-1,-9.463605682E0,3.087774618E-1,9.489726194E0
4.551364375E0,-5.952407062E-1,-9.367449975E0,6.441175818E-1,9.408417401E0
4.561379375E0,-4.625878118E-1,-9.366951208E0,8.987030856E-1,9.421328444E0
4.571393375E0,-3.327086172E-1,-9.465013692E0,1.089588876E0,9.533330117E0
4.581408375E0,-3.430604912E-1,-9.677125533E0,1.336526148E0,9.775006456E0
4.591423375E0,-4.033649093E-1,-9.738446453E0,1.284778290E0,9.831108677E0
4.601438375E0,-3.772954638E-1,-9.701596715E0,7.346429320E-1,9.736684801E0
4.611453375E0,-5.664113749E-1,-9.276400056E0,2.904685505E-1,9.298214443E0
4.621467375E0,-3.727282036E-1,-8.818751936E0,7.900464698E-1,8.861912065E0
4.631482375E0,2.720578246E-1,-8.277481615E0,4.570944623E-1,8.294555606E0
4.641497375E0,1.029995808E0,-7.282859707E0,2.351517416E0,7.722083336E0
4.651512375E0,2.682947832E0,-5.192157345E0,3.306371241E0,6.714819264E0
4.661527375E0,3.921472015E0,-2.466259668E0,2.346672413E0,5.193000186E0
4.671542375E0,4.460049985E0,6.909572875E-1,2.124329699E0,4.988210553E0
4.681556375E0,4.190508839E0,6.138751978E0,-8.417293511E-2,7.433150426E0
4.691571375E0,1.958404138E0,1.583035872E1,-3.514926220E0,1.633371698E1
4.701586375E0,-5.130424197E0,3.089214773E1,-4.925066475E0,3.170019438E1
4.711601375E0,-1.206598795E1,3.923112860E1,-6.697085059E0,4.158750371E1
4.721616375E0,-5.601718549E0,2.838390505E1,-6.710619024E0,2.969945664E1
4.731630375E0,-1.280389662E0,1.847842236E1,-5.911230969E0,1.944310012E1
4.741645375E0,-7.663805223E-1,1.732764120E1,-5.756365124E0,1.827485234E1
4.751660375E0,-3.375535908E0,1.874045948E1,-3.683245339E0,1.939498287E1
4.761675375E0,-4.979204675E0,1.920718307E1,-2.107355232E0,1.995367902E1
4.771690375E0,-4.280703310E0,1.713898664E1,-2.006178521E0,1.777903361E1
4.781704375E0,-2.878992109E0,1.434750250E1,-1.734515712E0,1.473594137E1
4.791719375E0,-1.318421707E0,1.203500472E1,-1.449360673E-1,1.210787268E1
4.801734375E0,-7.695140451E-2,9.500520324E0,1.175511371E0,9.573277126E0
4.811749375E0,7.727920673E-1,5.484293010E0,2.130602592E0,5.934150723E0
4.821764542E0,2.008210721E0,1.318989764E0,2.544587799E0,3.499653035E0
4.831778542E0,2.802174021E0,-2.879309905E0,2.611918488E0,4.792152226E0
4.841793542E0,2.835425675E0,-6.167259493E0,2.003735554E0,7.077406628E0
4.851808542E0,2.028069619E0,-8.255322422E0,1.974907612E0,8.727180229E0
4.861823542E0,1.180893733E0,-9.636773897E0,2.699215078E0,1.007708704E1
4.871838542E0,9.819849050E-1,-1.126828155E1,3.027507001E0,1.170915292E1
4.881852542E0,1.544213401E0,-1.265840796E1,3.009871799E0,1.310264154E1
4.891867542E0,2.589421618E0,-1.343093156E1,1.588213699E0,1.377016520E1
4.901882542E0,3.063213316E0,-1.340034945E1,1.143726711E-1,1.374648037E1
4.911897542E0,2.587988757E0,-1.302277603E1,-6.441900873E-1,1.329305692E1
4.921912542E0,1.596772268E0,-1.221380205E1,-1.185453172E-1,1.231830732E1
4.931926542E0,7.855549311E-1,-1.078729661E1,3.917634122E-1,1.082295446E1
4.941941542E0,2.034463038E-1,-9.624559649E0,2.625330027E-1,9.630288802E0
4.951956542E0,-2.370548203E-1,-9.301889824E0,2.202167030E-1,9.307515494E0
4.961971542E0,-5.258237314E-1,-9.308318253E0,2.965473890E-1,9.327873265E0
4.971986542E0,-6.759292855E-1,-9.281643839E0,4.940733870E-1,9.319329443E0
4.982000542E0,-6.315050646E-1,-9.162275856E0,7.648041129E-1,9.215802886E0
4.992015542E0,-4.113778605E-1,-9.159144087E0,8.667912483E-1,9.209260514E0
5.002030542E0,-2.426762603E-2,-9.185248981E0,6.749335778E-1,9.210044685E0
5.012045542E0,4.026047713E-1,-9.119689415E0,1.666643572E-1,9.130093243E0
5.022060542E0,5.794566592E-1,-9.108452235E0,-1.107241181E-1,9.127537016E0
5.032074542E0,6.017857140E-1,-8.957106414E0,-2.486306993E-1,8.980741538E0
5.042089542E0,3.524477208E-1,-8.813004123E0,-4.640343033E-2,8.820170880E0
5.052104542E0,2.121548910E-1,-8.648685669E0,1.741453580E-1,8.653039934E0
5.062119542E0,1.612317822E-1,-8.298590648E0,4.279701389E-2,8.300267105E0
5.072134542E0,1.566738776E-1,-7.693085155E0,7.874799807E-2,7.695083310E0
5.082148542E0,8.591787583E-1,-6.474217849E0,9.435499871E-1,6.598785606E0
5.092163542E0,2.366335723E0,-4.434772180E0,4.015259965E-1,5.042615607E0
5.102178542E0,3.338553731E0,-1.957406310E0,1.082842358E0,4.018697308E0
5.112193542E0,3.463418390E0,2.065832984E0,2.802874517E0,4.911113766E0
5.122208542E0,3.067472135E0,1.022049325E1,6.527924379E-1,1.069083746E1
5.132222542E0,-1.380671749E0,2.397058338E1,-1.160599802E0,2.403834674E1
5.142237542E0,-9.996143771E0,3.869633992E1,-2.915370269E0,4.007279623E1
5.152252542E0,-1.093098258E1,3.828973858E1,-7.725236070E0,4.056192467E1
5.162267542E0,-5.295828479E0,2.399178539E1,-7.180125883E0,2.559698758E1
5.172282542E0,-1.416913377E0,1.863127092E1,-4.964180839E0,1.933326126E1
5.182296542E0,-2.643134725E0,1.966945107E1,-6.484447553E0,2.087873384E1
5.192311542E0,-4.951124007E0,1.829464086E1,-5.058198220E0,1.961613832E1
5.202326542E0,-3.876904245E0,1.482770859E1,-1.683587633E0,1.541835905E1
5.212341542E0,-2.275387838E0,1.267177235E1,-2.246125301E-1,1.287639915E1
5.222356542E0,-1.450337231E0,1.090826497E1,1.268423628E0,1.107712153E1
5.232370542E0,-4.912902950E-1,8.645529926E0,2.043552754E0,8.897340149E0
5.242385542E0,5.766012445E-1,5.628422198E0,2.147548993E0,6.051741246E0
5.252400542E0,1.769789041E0,2.115322648E0,1.976860582E0,3.393334778E0
5.262415542E0,2.570467283E0,-1.853949770E0,1.817319303E0,3.653365743E0
5.272430542E0,2.574405676E0,-5.104540912E0,2.025871943E0,6.065316120E0
5.282444542E0,1.610067083E0,-6.743212574E0,1.698122642E0,7.137706377E0
5.292459542E0,6.587678538E-1,-7.832779815E0,1.986521351E0,8.107569413E0
5.302474542E0,7.879123092E-2,-9.193174882E0,3.164199700E0,9.722799608E0
5.312489542E0,6.129738495E-1,-1.071569745E1,4.933402265E0,1.181272055E1
5.322504542E0,1.555710196E0,-1.262618746E1,4.546263964E0,1.350960251E1
5.332518542E0,2.315999089E0,-1.395171032E1,1.202108016E0,1.419363013E1
5.342533542E0,2.230931165E0,-1.408227981E1,-1.647157141E0,1.435272745E1
5.352548542E0,1.644321534E0,-1.281826265E1,-2.299674833E0,1.312631536E1
5.362563542E0,1.141838718E0,-1.075751089E1,-1.343293716E0,1.090102171E1
5.372578542E0,7.480091554E-1,-9.572982529E0,-3.401606011E-1,9.608185127E0
5.382592542E0,3.360867729E-1,-9.314972969E0,-6.880425967E-2,9.321287988E0
5.392607542E0,-6.678338885E-2,-9.300046197E0,-1.365523660E-1,9.301288396E0
5.402622542E0,-3.718656662E-1,-9.264372334E0,9.797594547E-3,9.271837725E0
5.412637542E0,-6.565672541E-1,-9.344527720E0,3.947770306E-1,9.375880107E0
5.422652542E0,-8.867901877E-1,-9.401898261E0,8.979276717E-1,9.486219577E0
5.432666542E0,-1.200331193E0,-9.534997846E0,1.109345594E0,9.674069803E0
5.442681542E0,-1.105306118E0,-9.418326598E0,1.252219824E0,9.565282642E0
5.452696542E0,-7.934826592E-1,-9.141787797E0,1.251625746E0,9.261126598E0
5.462711542E0,-4.955590548E-1,-8.795046739E0,1.033101337E0,8.869370005E0
5.472726542E0,-4.573030617E-1,-8.535446151E0,7.003561751E-1,8.576331726E0
5.482740542E0,-5.319664507E-1,-8.425027331E0,5.322265057E-1,8.458566007E0
5.492755542E0,-4.084083521E-1,-8.288701252E0,6.755932168E-1,8.326211145E0
5.502770542E0,3.013155741E-1,-7.863092950E0,7.752262632E-1,7.906958807E0
5.512785542E0,1.171361894E0,-7.291111883E0,1.270845544E0,7.493160186E0
5.522800542E0,2.429362568E0,-6.037379385E0,1.334931028E0,6.643326965E0
5.532814542E0,3.940909329E0,-3.766850583E0,1.051212430E-2,5.451608951E0
5.542829542E0,4.061780924E0,-6.819899976E-1,-2.096577644E-2,4.118690836E0
5.552844542E0,3.351389246E0,4.116940926E0,1.052122330E0,5.411836459E0
5.562859542E0,2.798972378E0,1.187978570E1,-1.003007253E-1,1.220547479E1
5.572874542E0,-1.997421146E0,2.448827013E1,-1.427556771E0,2.461103378E1
5.582888542E0,-9.003604642E0,3.596439681E1,-1.693081173E0,3.711292576E1
5.592903542E0,-5.250895550E0,3.077237103E1,-3.729195099E0,3.143910970E1
5.602918542E0,5.985707686E-1,2.119604681E1,-5.021460164E0,2.179095568E1
5.612933542E0,1.587916076E0,1.991432779E1,-4.600871111E0,2.050048642E1
5.622948542E0,-1.435335030E0,2.081556849E1,-6.333811584E0,2.180516561E1
5.632962542E0,-3.140699741E0,2.141399827E1,-6.648954288E0,2.264137606E1
5.642977542E0,-3.515399845E0,1.807757117E1,-3.762766303E0,1.879667592E1
5.652992542E0,-3.987654018E0,1.382963799E1,-1.598062749E0,1.448150808E1
5.663007542E0,-3.728718551E0,1.090325157E1,-8.268208516E-1,1.155282951E1
5.673022542E0,-2.961377039E0,8.179594547E0,6.445385814E-2,8.699406602E0
5.683036542E0,-2.052726158E0,5.041043658E0,1.381570759E0,5.615562626E0
5.693051542E0,-5.621846420E-1,1.552541006E0,2.639830756E0,3.113702228E0
5.703066542E0,1.051422345E0,-2.136719949E0,2.908010963E0,3.758668494E0
5.713081542E0,2.162806132E0,-5.254545967E0,3.200101604E0,6.521398160E0
5.723096542E0,2.099480495E0,-7.133423002E0,3.117004484E0,8.062831948E0
5.733110542E0,1.506939155E0,-8.080600601E0,2.161672357E0,8.499399925E0
5.743125542E0,8.717333150E-1,-8.508060717E0,1.980744302E0,8.778972840E0
5.753140542E0,6.625520986E-1,-9.278451844E0,3.273246764E0,9.861175807E0
5.763155542E0,8.857976228E-1,-1.053804033E1,4.157030021E0,1.136291468E1
5.773170542E0,1.521837569E0,-1.209655134E1,3.701770488E0,1.274149319E1
5.783184542E0,2.250233116E0,-1.318695883E1,2.292122569E0,1.357251849E1
5.793199542E0,2.322145390E0,-1.281751420E1,1.400300560E0,1.310121640E1
5.803214542E0,1.597982934E0,-1.155662530E1,1.122535524E0,1.172046175E1
5.813229542E0,1.046094070E0,-1.062508549E1,8.095212062E-1,1.070710414E1
5.823243417E0,1.010131355E0,-1.008526469E1,4.349755418E-1,1.014505461E1
5.833258417E0,9.837171426E-1,-9.727554844E0,3.359669781E-1,9.782939051E0
5.843273417E0,9.996098748E-1,-9.443178434E0,6.437481109E-1,9.517733474E0
5.853288417E0,8.339982357E-1,-9.240130363E0,7.438639180E-1,9.307464515E0
5.863303417E0,4.781423556E-1,-9.080941671E0,5.822447578E-1,9.112141938E0
5.873317417E0,3.026087590E-2,-8.885872124E0,4.960252972E-1,8.899757313E0
5.883332417E0,-4.433838379E-1,-8.667946982E0,5.526250291E-1,8.696855094E0
5.893347417E0,-8.365316880E-1,-8.590663748E0,6.086014478E-1,8.652727005E0
5.903362417E0,-1.060385834E0,-8.666814961E0,6.627549970E-1,8.756560048E0
5.913377417E0,-1.135765507E0,-8.776749632E0,6.056826639E-1,8.870634074E0
5.923391417E0,-9.123659089E-1,-8.804232130E0,2.681790376E-1,8.855440980E0
5.933406417E0,-5.767993555E-1,-8.572028672E0,-1.628224441E-1,8.592955498E0
5.943421417E0,-2.122344862E-1,-8.210733894E0,-2.500582239E-1,8.217282012E0
5.953436417E0,4.118650798E-1,-7.642460546E0,-6.945695512E-1,7.685002466E0
5.963451417E0,1.283330812E0,-6.594389241E0,2.069914341E-4,6.718102967E0
5.973465417E0,2.600714345E0,-4.925223180E0,5.880006838E-1,5.600650255E0
5.983480417E0,3.753279780E0,-2.278937683E0,2.292110728E-1,4.396953921E0
5.993495417E0,3.997795136E0,1.999482290E0,6.090342879E-2,4.470347258E0
6.003510417E0,3.010643339E0,8.774310758E0,1.539361382E0,9.403304529E0
6.013525417E0,-4.208945987E0,2.111411329E1,9.609432609E-1,2.155097256E1
6.023539417E0,-1.058425321E1,3.705130298E1,-3.800727596E0,3.872042096E1
6.033554417E0,-6.260041941E0,3.547419665E1,-6.371420875E0,3.658144007E1
6.043569417E0,-2.206868557E0,2.364056653E1,-8.154155066E0,2.510451951E1
6.053584417E0,-8.559808429E-1,2.173454965E1,-7.929701507E0,2.315174977E1
6.063598417E0,-2.572405928E0,2.082526317E1,-6.762405474E0,2.204629189E1
6.073613417E0,-4.804560038E0,1.866695764E1,-5.015115935E0,1.991709047E1
6.083628417E0,-4.871815297E0,1.616889614E1,-3.198251545E0,1.718710562E1
6.093643417E0,-4.078465370E0,1.320626166E1,-1.415547760E0,1.389399159E1
6.103658417E0,-3.193802984E0,1.075886628E1,4.216427207E-2,1.122298351E1
6.113672417E0,-2.078441920E0,8.593911876E0,1.220651876E0,8.925538256E0
6.123687417E0,-8.809160017E-1,6.180552553E0,2.213145397E0,6.623688958E0
6.133702417E0,1.641532704E-1,3.121745991E0,2.815053098E0,4.206752700E0
6.143717417E0,1.202200037E0,-5.372795963E-1,2.881786201E0,3.168382237E0
6.153732417E0,2.128249965E0,-4.743179476E0,2.753525187E0,5.882949975E0
6.163746417E0,2.660162694E0,-8.332339607E0,2.111904366E0,8.998026947E0
6.173761417E0,2.011048082E0,-9.955039015E0,1.866083912E0,1.032615056E1
6.183776417E0,9.534309044E-1,-1.028516579E1,2.746020870E0,1.068804456E1
6.193791417E0,1.244117922E0,-1.058799309E1,3.672063124E0,1.127552547E1
6.203806417E0,2.223967131E0,-1.145370611E1,3.709314566E0,1.224305632E1
6.213820417E0,3.141697276E0,-1.262811353E1,2.356371921E0,1.322467398E1
6.223835417E0,3.291041595E0,-1.291732734E1,9.375731094E-1,1.336290926E1
6.233850417E0,2.725680746E0,-1.192176871E1,-1.542846322E-1,1.223036011E1
6.243865417E0,1.537903086E0,-1.037280386E1,-5.054133674E-1,1.049836409E1
6.253879417E0,5.016040160E-1,-9.484318274E0,-5.385863028E-2,9.497726068E0
6.263894417E0,1.920562201E-1,-9.413373422E0,4.510624746E-1,9.426130814E0
6.273909417E0,2.559180111E-1,-9.472855393E0,7.512455893E-1,9.506042986E0
6.283924417E0,1.828284001E-1,-9.539793148E0,6.148838425E-1,9.561336814E0
6.293939417E0,-7.552176028E-2,-9.655398449E0,4.595467114E-1,9.666623295E0
6.303953417E0,-2.716244728E-1,-9.587716343E0,3.103410438E-1,9.596582521E0
6.313968417E0,-3.313947478E-1,-9.302558745E0,4.399947917E-1,9.318852778E0
6.323983417E0,-3.056774508E-1,-9.001168107E0,9.454188303E-1,9.055842466E0
6.333998417E0,-3.065815035E-1,-8.765836973E0,1.516045024E0,8.901251742E0
6.344013417E0,-2.805050413E-1,-8.578288701E0,1.807477123E0,8.771128414E0
6.354027417E0,2.997867465E-2,-8.327795151E0,1.712558248E0,8.502113064E0
6.364042417E0,5.055743120E-1,-7.931229969E0,1.398856298E0,8.069498941E0
6.374057417E0,9.603024061E-1,-7.356078542E0,7.253519987E-1,7.453871997E0
6.384072417E0,1.269377016E0,-6.610315302E0,4.700039450E-1,6.747480279E0
6.394087417E0,1.815524792E0,-6.018396984E0,6.823748175E-1,6.323200765E0
6.404101417E0,2.612844394E0,-5.147882813E0,1.181643931E0,5.892701899E0
6.414116417E0,3.436156916E0,-3.613747673E0,7.981542921E-1,5.050088798E0
6.424131417E0,3.827858677E0,-1.390170844E0,-3.619294927E-2,4.072638820E0
6.434146417E0,4.166371240E0,2.753866664E0,1.762025692E0,5.295957464E0
6.444160417E0,3.303812207E0,9.235163738E0,4.791952271E0,1.091632864E1
6.454175417E0,-2.453147871E0,2.219732870E1,3.842880174E0,2.266069425E1
6.464190417E0,-9.225306501E0,3.622103110E1,-1.184683240E0,3.739616088E1
6.474205417E0,-7.032953804E0,3.002700540E1,-2.712892885E0,3.095873512E1
6.484220417E0,-3.019920531E0,1.802046843E1,-6.256622490E0,1.931327335E1
6.494234417E0,-2.696730743E-1,1.804610730E1,-7.698881500E0,1.962160770E1
6.504249417E0,-6.912451898E-1,1.956235347E1,-8.179765871E0,2.121490191E1
6.514264417E0,-2.562455721E0,1.874434203E1,-7.487130432E0,2.034634266E1
6.524279417E0,-2.888692640E0,1.590337992E1,-5.265132351E0,1.699951931E1
6.534294417E0,-2.547269625E0,1.301734163E1,-2.526284845E0,1.350266199E1
6.544308417E0,-2.061077152E0,1.038757393E1,-1.131712217E0,1.065037575E1
6.554323417E0,-1.688407786E0,8.336695783E0,-9.659110554E-1,8.560619230E0
6.564338417E0,-1.421585887E0,6.493254045E0,-7.352464378E-1,6.687588642E0
6.574353417E0,-7.962957546E-1,4.784446201E0,-2.441165757E-1,4.856398386E0
6.584367417E0,-6.046789894E-1,2.056837043E0,8.242866683E-1,2.296881323E0
6.594382417E0,-1.140484795E-1,-1.075395344E0,1.837527280E0,2.132132432E0
6.604397417E0,2.014536092E-1,-4.081569949E0,2.197229422E0,4.639785980E0
6.614412417E0,3.617387272E-2,-6.582741587E0,2.209105117E0,6.943625909E0
6.624427417E0,-9.538771201E-2,-8.123799246E0,2.144746861E0,8.402687195E0
6.634441417E0,-7.149115759E-1,-8.869209899E0,2.496910772E0,9.241674426E0
6.644456417E0,-1.448526933E0,-9.204364699E0,3.285877919E0,9.880058374E0
6.654471417E0,-1.094410782E0,-9.993242383E0,3.352692883E0,1.059731937E1
6.664486417E0,-3.226672668E-2,-1.105135102E1,2.904003282E0,1.142657585E1
6.674500417E0,1.058806209E0,-1.204978297E1,1.956823343E0,1.225346881E1
6.684515417E0,1.863818700E0,-1.236824690E1,9.945004316E-1,1.254736556E1
6.694530417E0,1.971474711E0,-1.195010081E1,5.844269387E-1,1.212572376E1
6.704545417E0,1.669897840E0,-1.101447380E1,4.540047204E-1,1.114958798E1
6.714560417E0,1.264987804E0,-1.006373641E1,3.498739958E-2,1.014298816E1
6.724574417E0,7.292387161E-1,-9.359924608E0,-4.437978208E-1,9.398773020E0
6.734589417E0,2.644494276E-1,-8.895068625E0,-5.070049795E-1,8.913429946E0
6.744604417E0,2.654416636E-3,-8.641298881E0,-1.986368593E-1,8.643582012E0
6.754619417E0,-1.136509419E-1,-8.542696699E0,-8.961588889E-3,8.543457364E0
6.764634417E0,-1.454512435E-1,-8.503426799E0,1.655978251E-1,8.506282738E0
6.774648417E0,-1.348662848E-1,-8.436796607E0,4.082830755E-1,8.447746502E0
6.784663417E0,-1.473569242E-1,-8.475230940E0,6.821161513E-1,8.503912981E0
6.794678417E0,-1.512683460E-1,-8.590409394E0,9.509736121E-1,8.644209997E0
6.804693417E0,-8.971638791E-2,-8.725830324E0,1.250633035E0,8.815455000E0
6.814707417E0,2.713195771E-2,-8.853154614E0,1.390222299E0,8.961685154E0
6.824721875E0,2.123837364E-1,-8.686628251E0,1.320001917E0,8.788914739E0
6.834736875E0,6.540196223E-1,-8.083277457E0,1.089514105E0,8.182551991E0
6.844751875E0,1.289699891E0,-7.048631358E0,9.481798124E-1,7.228110043E0
6.854766875E0,2.516299262E0,-5.319900296E0,-4.788979255E-2,5.885184328E0
6.864780875E0,3.673786883E0,-2.991080017E0,-1.865267640E0,5.091413665E0
6.874795875E0,3.907583123E0,-1.511844385E-1,-1.569534184E0,4.213727584E0
6.884810875E0,2.794437862E0,3.955611568E0,1.249655235E0,5.001738103E0
6.894825875E0,-1.516338262E0,1.040264103E1,1.816604773E0,1.066837734E1
6.904840875E0,-1.006373641E1,2.215614325E1,-2.185689357E0,2.443257482E1
6.914854875E0,-1.391835195E1,3.114198756E1,-4.585309331E0,3.441756778E1
6.924869875E0,-9.671690546E0,2.651890054E1,-5.053944955E0,2.867640220E1
6.934884875E0,-4.898465737E0,2.076454335E1,-7.323511305E0,2.255648565E1
6.944899875E0,-2.893451104E0,2.110411689E1,-6.992032650E0,2.241973081E1
6.954913875E0,-2.499486471E0,2.197276755E1,-5.739259679E0,2.284707964E1
6.964928875E0,-2.326329365E0,2.081921949E1,-5.095354936E0,2.155955358E1
6.974943875E0,-2.280150834E0,1.766995358E1,-3.600813632E0,1.817669404E1
6.984958875E0,-1.496250884E0,1.417116918E1,-1.790810219E0,1.436202646E1
6.994973875E0,-7.315267316E-1,1.097999628E1,-1.204208482E-1,1.100499663E1
7.004987875E0,-4.662383381E-1,7.612438018E0,7.184686565E-1,7.660469174E0
7.015002875E0,-7.766891634E-1,4.412554514E0,9.376431298E-1,4.577451042E0
7.025017875E0,-1.931417191E-1,1.682840359E0,2.047400222E0,2.657273615E0
7.035032875E0,1.031566662E0,-1.021103947E0,2.966596556E0,3.302647147E0
7.045046875E0,1.633933955E0,-3.810118225E0,3.867624421E0,5.669678978E0
7.055061875E0,1.988452102E0,-5.897092987E0,4.006187060E0,7.401295982E0
7.065076875E0,2.072969657E0,-7.594688210E0,3.681853702E0,8.690945799E0
7.075091875E0,1.656437842E0,-8.493425136E0,2.581612369E0,9.030325536E0
7.085106875E0,1.115711896E0,-9.073996933E0,2.070492046E0,9.373855700E0
7.095120875E0,1.184535964E0,-1.013369718E1,2.675346744E0,1.054762647E1
7.105135875E0,2.010253738E0,-1.146216119E1,2.283286257E0,1.185899049E1
7.115150875E0,2.531201184E0,-1.259222800E1,1.176780290E0,1.289790670E1
7.125165875E0,2.773954189E0,-1.268256865E1,-9.816415273E-2,1.298275801E1
7.135180875E0,2.643914452E0,-1.141891752E1,-5.344307598E-1,1.173318274E1
7.145194875E0,1.960241041E0,-1.017825998E1,-6.623842835E-2,1.036551536E1
7.155209875E0,1.560677114E0,-9.566134270E0,5.198550399E-1,9.706538373E0
7.165224875E0,1.334543942E0,-9.449133239E0,9.217786105E-1,9.587325086E0
7.175239875E0,1.193428117E0,-9.585275715E0,1.178454859E0,9.730906281E0
7.185253875E0,9.523322857E-1,-9.787727371E0,1.267409720E0,9.915284730E0
7.195268875E0,5.475781511E-1,-9.789570998E0,1.453956804E0,9.912090221E0
7.205283875E0,1.837257285E-1,-9.567490239E0,1.644138808E0,9.709470482E0
7.215298875E0,8.830245808E-2,-9.145365123E0,1.690650924E0,9.300741965E0
7.225313875E0,2.163516569E-1,-8.731378162E0,1.824183934E0,8.922523167E0
7.235327875E0,4.695952246E-1,-8.382009950E0,2.015302516E0,8.633658246E0
7.245342875E0,8.736668430E-1,-8.089593619E0,1.833420049E0,8.340638330E0
7.255357875E0,1.270121951E0,-7.928322149E0,1.352765036E0,8.142571775E0
7.265372875E0,1.641057618E0,-7.616431666E0,7.690934841E-1,7.829087189E0
7.275386875E0,1.939019741E0,-7.079557282E0,5.171384235E-1,7.358489044E0
7.285401875E0,2.032782767E0,-6.340987871E0,4.735942085E-1,6.675674081E0
7.295416875E0,2.113636896E0,-4.895701758E0,1.700301607E-1,5.335191363E0
7.305431875E0,2.053168208E0,-2.713549528E0,-4.707686877E-1,3.435181783E0
7.315446875E0,1.614378966E0,1.082927728E-1,1.252938885E0,2.046412133E0
7.325460875E0,1.450428740E0,4.632195815E0,4.683127402E0,6.744824969E0
7.335475875E0,5.030199558E-1,1.295020507E1,5.187035769E0,1.395944771E1
7.345490875E0,-4.823941804E0,2.709401396E1,5.192725110E-1,2.752500047E1
7.355505875E0,-5.899509056E0,3.489895927E1,-5.479640965E0,3.581575115E1
7.365519875E0,-2.503012634E0,2.316167723E1,-5.550097575E0,2.394852704E1
7.375534875E0,-3.541249216E-2,1.568295743E1,-4.323834711E0,1.626812695E1
7.385549875E0,1.198607069E0,1.724723029E1,-3.578136960E0,1.765521667E1
7.395564875E0,-9.772564810E-1,1.872642850E1,-4.257770530E0,1.922921643E1
7.405579875E0,-2.652271585E0,1.847986078E1,-4.542084374E0,1.921380570E1
7.415593875E0,-3.229646123E0,1.579234598E1,-3.764057368E0,1.655285273E1
7.425608875E0,-2.621058855E0,1.216449365E1,-3.210490937E0,1.285115198E1
7.435623875E0,-1.757026031E0,9.287909716E0,-2.457288870E0,9.766815036E0
7.445638875E0,-1.201242116E0,7.384622895E0,-1.133479392E0,7.567061084E0
7.455652875E0,-9.817986712E-1,5.887631607E0,4.642689228E-2,5.969111326E0
7.465667875E0,-7.930637792E-1,4.202783314E0,9.875021915E-1,4.389475859E0
7.475682875E0,-8.739464861E-1,1.926172823E0,1.521567135E0,2.605588370E0
7.485697875E0,-1.091012234E0,-7.212891340E-1,1.943857435E0,2.342892963E0
7.495712875E0,-1.196427154E0,-3.434162139E0,2.308791811E0,4.307601091E0
7.505726875E0,-1.023267636E0,-5.823934963E0,2.229211206E0,6.319389030E0
7.515741875E0,-8.636741707E-1,-7.987196009E0,1.970414611E0,8.271865987E0
7.525756875E0,-9.374892750E-1,-9.530514786E0,1.365144761E0,9.673325098E0
7.535771875E0,-1.190179111E0,-1.084871342E1,1.663094312E0,1.103979130E1
7.545785875E0,-5.778826253E-1,-1.244597510E1,2.051454681E0,1.262714183E1
7.555800875E0,7.125510550E-1,-1.374135439E1,1.830653293E0,1.388106052E1
7.565815875E0,1.751115080E0,-1.414999992E1,1.335758994E0,1.432037548E1
7.575830875E0,2.379007224E0,-1.315018452E1,1.125557584E0,1.341096224E1
7.585845875E0,2.300682016E0,-1.129832688E1,1.117116471E0,1.158418220E1
7.595859875E0,1.969783989E0,-9.605603560E0,8.781488069E-1,9.844735347E0
7.605874875E0,1.561980166E0,-8.576962552E0,4.077053706E-1,8.727559357E0
7.615889875E0,1.122848423E0,-8.218240550E0,-1.119963992E-1,8.295348667E0
7.625904875E0,6.111021923E-1,-8.202937801E0,-1.238638350E-1,8.226601772E0
7.635918875E0,2.035883546E-1,-8.397309775E0,9.727895737E-2,8.400340640E0
7.645933875E0,-4.596752040E-3,-8.646485361E0,1.527059571E-1,8.647834951E0
7.655948875E0,-1.171532779E-1,-8.846574157E0,8.968232788E-2,8.847804368E0
7.665963875E0,-2.480891009E-1,-9.065226694E0,-1.519854339E-1,9.069894309E0
7.675978875E0,-3.438285595E-1,-9.219659845E0,-4.330658412E-1,9.236227139E0
7.685992875E0,-4.475636470E-1,-9.340043491E0,-5.653508361E-1,9.367835779E0
7.696007875E0,-3.749295341E-1,-9.294271486E0,-7.910171076E-1,9.335403724E0
7.706022875E0,-1.735444835E-1,-8.962967663E0,-5.622425294E-1,8.982261612E0
7.716037875E0,2.907049242E-1,-8.174313927E0,-3.405078527E-1,8.186566015E0
7.726051875E0,8.772586414E-1,-6.803647056E0,1.047704101E-1,6.860770570E0
7.736066875E0,1.412705136E0,-4.805188029E0,5.005123043E-1,5.033495839E0
7.746081875E0,1.407323358E0,-2.087692215E0,1.072964803E-1,2.520025864E0
7.756096875E0,6.453294173E-1,1.525626272E0,1.435782634E0,2.192135340E0
7.766110875E0,-4.663180795E-1,7.514521129E0,2.534070997E0,7.943991199E0
7.776125875E0,-6.120272437E0,1.962318322E1,4.600179970E-1,2.056060970E1
7.786140875E0,-1.146074265E1,3.610860084E1,-4.951291237E0,3.820595453E1
7.796155875E0,-8.208216668E0,3.133821778E1,-1.517802697E0,3.243088712E1
7.806170875E0,-3.830558336E0,1.935589998E1,-6.854210268E0,2.088789696E1
7.816184875E0,-3.818940796E-1,2.121382936E1,-7.748648322E0,2.258791602E1
7.826200000E0,6.428788492E-1,2.010556916E1,-4.457337170E0,2.060376323E1
7.836215000E0,-1.577497361E0,1.641559368E1,-4.158433353E0,1.700743313E1
7.846230000E0,-4.042207662E0,1.495169997E1,-5.007487657E0,1.627782870E1
7.856245000E0,-2.178637907E0,1.369213253E1,-1.874222066E0,1.399048479E1
7.866259000E0,-5.711541246E-1,1.017426049E1,4.094011362E-1,1.019850002E1
7.876274000E0,4.385046288E-1,6.757810147E0,1.269761763E0,6.890034777E0
7.886289000E0,1.399769633E0,4.281535953E0,1.814627244E0,4.856313126E0
7.896304000E0,2.057058653E0,2.261014797E0,2.069694486E0,3.691519129E0
7.906318000E0,2.456737477E0,9.680182457E-2,2.209405518E0,3.305510908E0
7.916333000E0,2.394711529E0,-2.497192023E0,2.557910095E0,4.302733476E0
7.926348000E0,2.578875287E0,-4.769190230E0,2.912084134E0,6.154348642E0
7.936363000E0,2.663985604E0,-6.436952375E0,2.660784838E0,7.457275047E0
7.946377000E0,2.373868252E0,-7.231866724E0,1.704606181E0,7.800053143E0
7.956392000E0,1.546391927E0,-7.906571091E0,1.217688653E0,8.147880711E0
7.966407000E0,1.174760004E0,-9.116885090E0,1.862941618E0,9.379136756E0
7.976422000E0,1.523268967E0,-1.058265809E1,2.709872214E0,1.102979637E1
7.986437000E0,2.018421713E0,-1.186839416E1,2.753360295E0,1.234964773E1
7.996451000E0,2.462182697E0,-1.259087028E1,1.393562229E0,1.290481978E1
8.006466000E0,2.709348888E0,-1.216848730E1,-5.042872667E-2,1.246656318E1
8.016481000E0,2.264150074E0,-1.078766615E1,-3.346571287E-1,1.102778817E1
8.026496000E0,1.509276872E0,-9.867393930E0,3.417733363E-1,9.988002236E0
8.036510000E0,1.112337541E0,-9.595002558E0,8.963337938E-1,9.700761989E0
8.046525000E0,9.674333049E-1,-9.563769071E0,1.032176308E0,9.667832951E0
8.056540000E0,7.448058314E-1,-9.600089636E0,1.032337764E0,9.684119888E0
8.066555000E0,4.231806846E-1,-9.669786108E0,1.071069721E0,9.738122797E0
8.076569000E0,2.202564275E-1,-9.638469590E0,1.136843734E0,9.707781549E0
8.086584000E0,6.063752666E-2,-9.518636168E0,1.064826941E0,9.578202745E0
8.096599000E0,3.631274410E-2,-9.295857251E0,9.295225898E-1,9.342285207E0
8.106614000E0,9.269093961E-2,-9.033851704E0,8.256093085E-1,9.071973267E0
8.116629000E0,2.010991949E-1,-8.775247482E0,1.058041978E0,8.841089417E0
8.126643000E0,4.387475806E-1,-8.332054263E0,1.751634021E0,8.525482358E0
8.136658000E0,8.272474059E-1,-7.552569546E0,2.008047291E0,7.858619404E0
8.146673000E0,1.136286348E0,-6.394762959E0,1.407111251E0,6.645607726E0
8.156688000E0,1.407204514E0,-5.113736243E0,1.700867179E0,5.569871818E0
8.166702000E0,2.277436118E0,-3.217259674E0,7.220539498E-1,4.007347874E0
8.176717000E0,2.847380599E0,-2.350580692E-1,7.279208998E-1,2.948338076E0
8.186732000E0,3.389597292E0,4.029474766E0,2.648167716E0,5.893965469E0
8.196747000E0,2.380583341E0,1.042946455E1,3.407076666E0,1.122715811E1
8.206762000E0,-1.264841039E0,2.084941685E1,2.164243963E0,2.099957042E1
8.216776000E0,-5.153425974E0,2.809020643E1,5.235540616E-1,2.856381636E1
8.226791000E0,-7.144015233E0,2.139016034E1,-3.565951363E0,2.283181820E1
8.236806000E0,-5.014733527E0,1.362673961E1,-8.606776335E0,1.687934192E1
8.246821000E0,-2.578323310E0,1.332984841E1,-7.197297986E0,1.536664270E1
8.256835000E0,-2.546514457E0,1.616790679E1,-5.548744529E0,1.728220217E1
8.266850000E0,-4.714462631E0,1.884367453E1,-5.951009578E0,2.031562804E1
8.276865000E0,-5.684755443E0,1.908288763E1,-6.625883514E0,2.098512276E1
8.286880000E0,-4.214598490E0,1.608912374E1,-5.562082028E0,1.753737437E1
8.296895000E0,-3.035888400E0,1.271045285E1,-4.124485588E0,1.370341605E1
8.306909000E0,-2.267241789E0,1.050385751E1,-2.717725024E0,1.108410741E1
8.316924000E0,-1.865975592E0,8.390160384E0,-1.236795015E0,8.683681137E0
8.326939000E0,-1.472149246E0,6.229182091E0,-3.692678945E-1,6.411418853E0
8.336954000E0,-1.403193470E0,3.574721602E0,3.141592757E-1,3.853087398E0
8.346968000E0,-1.442751930E0,3.535647583E-1,1.128524388E0,1.865504882E0
8.356983000E0,-1.281362493E0,-2.852415052E0,2.154987967E0,3.797648562E0
8.366998000E0,-1.030576437E0,-5.331198871E0,2.647109370E0,6.040774554E0
8.377013000E0,-7.519723251E-1,-7.057125608E0,2.403095706E0,7.492886840E0
8.387027000E0,-5.625269964E-1,-8.181866190E0,1.778996651E0,8.391912777E0
8.397042000E0,-6.251682177E-1,-8.345702834E0,1.560555199E0,8.513337984E0
8.407057000E0,-8.554695039E-1,-8.337502699E0,2.121466902E0,8.645600103E0
8.417072000E0,-1.956761216E-1,-8.937584900E0,2.455572127E0,9.270843945E0
8.427087000E0,1.054776308E0,-9.998010203E0,2.586782477E0,1.038095394E1
8.437101000E0,2.469323901E0,-1.137490904E1,1.684650657E0,1.176112937E1
8.447116000E0,3.237531678E0,-1.238535000E1,5.582079506E-1,1.281366857E1
8.457131000E0,3.104020742E0,-1.223814986E1,7.366731584E-1,1.264713185E1
8.467146000E0,2.486115643E0,-1.105540080E1,1.343752137E0,1.141088637E1
8.477160000E0,1.951819588E0,-9.926786438E0,1.322214503E0,1.020288880E1
8.487175000E0,1.689186342E0,-9.197502991E0,1.149792978E0,9.421753322E0
8.497190000E0,1.389630269E0,-8.838459976E0,9.512893617E-1,8.997466226E0
8.507205000E0,1.084974399E0,-8.694971058E0,8.434820540E-1,8.802905948E0
8.517219000E0,7.393900672E-1,-8.678265563E0,8.902643108E-1,8.755087744E0
8.527234000E0,3.622605181E-1,-8.720882410E0,1.035699840E0,8.789635763E0
8.537249000E0,1.126534069E-1,-8.741761647E0,1.192627414E0,8.823460072E0
8.547264000E0,6.878445223E-3,-8.796327279E0,1.257991025E0,8.885829299E0
8.557279000E0,-5.003572069E-2,-8.870627264E0,1.210089538E0,8.952924009E0
8.567293000E0,4.374799043E-2,-8.849220607E0,1.209181978E0,8.931558671E0
8.577308000E0,3.504923388E-1,-8.615969328E0,1.168767192E0,8.701941685E0
8.587323000E0,9.809225390E-1,-8.044025098E0,2.444218735E-1,8.107298617E0
8.597338000E0,1.855949225E0,-7.170487917E0,-9.424892291E-1,7.466507245E0
8.607352000E0,2.942791371E0,-5.855160849E0,-1.684713807E0,6.766179885E0
8.617367000E0,3.721766796E0,-4.025230272E0,-1.304606198E0,5.635248367E0
8.627382000E0,3.259525688E0,-1.056595377E0,1.534754506E-1,3.429935307E0
8.637397000E0,1.667418620E0,3.867455437E0,3.140352416E0,5.253504517E0
8.647411000E0,-4.801535566E0,1.079910097E1,4.769716480E0,1.274462713E1
8.657426000E0,-1.237179499E1,2.125471777E1,5.640340432E-1,2.459964376E1
8.667441000E0,-1.269847775E1,2.547611745E1,-5.421324345E0,2.897714022E1
8.677456000E0,-8.368804014E0,2.073284676E1,-3.691189367E0,2.266081848E1
8.687471000E0,-2.178598292E0,1.813616846E1,-1.955070348E0,1.837087904E1
8.697485000E0,6.024933001E-1,1.892938536E1,-3.920041201E0,1.934040722E1
8.707500000E0,8.549539257E-1,2.079464481E1,-5.540910430E0,2.153717455E1
8.717515000E0,9.927598616E-1,2.263838885E1,-5.078954666E0,2.322235997E1
8.727530000E0,5.218777379E-1,2.139113565E1,-3.531832860E0,2.168702110E1
8.737544000E0,-5.679561362E-1,1.734065360E1,-1.954558132E0,1.745970042E1
8.747559000E0,-1.369709682E0,1.341160651E1,-1.342408447E0,1.354803876E1
8.757574000E0,-1.611999880E0,1.020972385E1,-6.243703651E-1,1.035503950E1
8.767589000E0,-1.612453916E0,6.940176033E0,4.246856117E-1,7.137675312E0
8.777603000E0,-1.337097714E0,3.447251131E0,1.478498883E0,3.982126267E0
8.787618000E0,-7.283182912E-1,-1.541074616E-1,2.014319015E0,2.147481719E0
8.797633000E0,8.663497835E-2,-3.362012760E0,2.190999652E0,4.013865331E0
8.807648000E0,8.540864182E-1,-6.091674875E0,2.102737101E0,6.500728398E0
8.817663000E0,1.448549152E0,-8.036359983E0,1.377325680E0,8.281207790E0
8.827676750E0,1.563687260E0,-9.009943024E0,8.228482533E-1,9.181572327E0
8.837691750E0,1.390663764E0,-9.369309974E0,1.127147881E0,9.538782807E0
8.847706750E0,1.386179827E0,-9.777611688E0,1.431667364E0,9.978619958E0
8.857721750E0,1.706418379E0,-1.052710721E1,1.746444032E0,1.080656821E1
8.867735750E0,2.288755742E0,-1.158122687E1,1.588470976E0,1.191161025E1
8.877750750E0,2.719637648E0,-1.221971592E1,1.133720151E0,1.256993268E1
8.887765750E0,2.572169993E0,-1.212334562E1,9.077661967E-1,1.242640765E1
8.897780750E0,2.001791940E0,-1.120389669E1,5.255138290E-1,1.139344710E1
8.907794750E0,1.207108262E0,-1.033670549E1,3.538442552E-1,1.041296291E1
8.917809750E0,6.566154206E-1,-9.797587531E0,3.759397137E-1,9.826759176E0
8.927824750E0,5.087524930E-1,-9.389160687E0,5.203483987E-1,9.417320742E0
8.937839750E0,3.775778477E-1,-9.091086005E0,6.903994632E-1,9.125078696E0
8.947854750E0,2.751366395E-1,-8.812439867E0,6.539490902E-1,8.840952776E0
8.957868750E0,2.146817287E-1,-8.627281351E0,4.787209010E-1,8.643219623E0
8.967883750E0,1.723095881E-1,-8.593855158E0,5.251621921E-2,8.595742843E0
8.977898750E0,2.759878479E-2,-8.716933200E0,-8.501270492E-2,8.717391426E0
8.987913750E0,-1.605675385E-1,-8.926136051E0,1.876160638E-1,8.929551306E0
8.997927750E0,-2.379957104E-1,-9.083682845E0,4.939260006E-1,9.100214222E0
9.007942750E0,-1.785067230E-2,-9.076090236E0,4.378979802E-1,9.086665354E0
9.017957750E0,5.537930835E-1,-8.690508463E0,-2.070826141E-1,8.710597416E0
9.027972750E0,1.057330372E0,-7.849582958E0,-4.416285038E-2,7.920596599E0
9.037986750E0,1.690855722E0,-6.447700726E0,4.174795397E-1,6.678781842E0
9.048001750E0,2.624560460E0,-4.579728749E0,-1.933159661E-1,5.282007581E0
9.058016750E0,3.064289788E0,-2.135297906E0,-1.137981456E-2,3.734902751E0
9.068031750E0,3.331176006E0,1.975924442E0,3.120788802E0,4.973965594E0
9.078046750E0,2.425452827E0,8.539094814E0,4.323380967E0,9.873732053E0
9.088060750E0,-2.418564807E0,1.898935440E1,1.752670147E0,1.922282209E1
9.098075750E0,-7.458598943E0,2.948948957E1,-3.956511455E0,3.067433253E1
9.108090750E0,-8.034350295E0,2.662013221E1,-6.436707376E0,2.854143349E1
9.118105750E0,-4.920376423E0,1.717760633E1,-7.450545573E0,1.935951685E1
9.128119750E0,-1.089251491E0,1.659210708E1,-6.753551620E0,1.794700381E1
9.138134750E0,-5.432074670E-1,1.946686844E1,-5.047774973E0,2.011800371E1
9.148149750E0,-1.673910491E0,2.109215115E1,-3.842465022E0,2.150454263E1
9.158164750E0,-1.794452596E0,2.067070723E1,-3.248909483E0,2.100127640E1
9.168178750E0,-1.494887167E0,1.754756668E1,-2.177163970E0,1.774519166E1
9.178193750E0,-1.542273587E0,1.346891624E1,-1.338428832E0,1.362283760E1
9.188208750E0,-1.382885213E0,1.032187461E1,-4.782519178E-1,1.042507515E1
9.198223750E0,-1.066749359E0,7.657859189E0,7.766833162E-1,7.770714158E0
9.208238750E0,-7.369403031E-1,5.038396624E0,1.801824181E0,5.401397220E0
9.218252750E0,-4.219938825E-1,2.127187818E0,2.505885079E0,3.313980519E0
9.228267750E0,-1.042572803E-1,-7.459959590E-1,2.768261340E0,2.868911012E0
9.238282750E0,3.961856979E-1,-3.164896104E0,3.078654935E0,4.433017783E0
9.248297750E0,7.296103066E-1,-5.230342587E0,3.046937299E0,6.096937074E0
9.258311750E0,9.257419994E-1,-6.760458351E0,2.080190238E0,7.133581625E0
9.268326750E0,5.846195313E-1,-7.708518881E0,9.019318449E-1,7.783092212E0
9.278341750E0,-9.535286626E-2,-8.441579044E0,7.430536401E-1,8.474755315E0
9.288356750E0,-2.961267550E-2,-9.877210236E0,1.235996139E0,9.954287790E0
9.298370750E0,8.493288311E-1,-1.156620654E1,1.391506348E0,1.168053009E1
9.308385750E0,1.657636813E0,-1.306966602E1,5.655883062E-1,1.318650143E1
9.318400750E0,1.812245089E0,-1.376416555E1,-4.394814062E-1,1.388991107E1
9.328415750E0,1.338518295E0,-1.311160108E1,-7.237297618E-1,1.319960223E1
9.338429750E0,6.132901838E-1,-1.145089477E1,-8.487736380E-1,1.149867526E1
9.348444750E0,4.379155219E-2,-1.004102934E1,-7.799565876E-1,1.007137131E1
9.358459750E0,-3.875926298E-1,-9.571427169E0,-3.023045576E-1,9.584040596E0
9.368474750E0,-4.831849213E-1,-9.640983308E0,1.554049587E-1,9.654334649E0
9.378489750E0,-2.717130582E-1,-9.700400959E0,3.512679720E-1,9.710561052E0
9.388503750E0,-1.726532947E-2,-9.550522204E0,5.944758904E-1,9.569021582E0
9.398518750E0,2.558355653E-1,-9.206863214E0,7.169411445E-1,9.238278340E0
9.408533750E0,4.739300214E-1,-8.716246737E0,8.362453938E-1,8.769086224E0
9.418548750E0,6.605342245E-1,-8.205383692E0,1.178341423E0,8.315835226E0
9.428562750E0,8.196223444E-1,-7.783294244E0,1.740058873E0,8.017434437E0
9.438577750E0,9.935676545E-1,-7.466366969E0,2.118599428E0,7.824466496E0
9.448592750E0,1.189456103E0,-7.198208397E0,1.792007875E0,7.512676099E0
9.458607750E0,1.211574073E0,-7.176538031E0,1.065894789E0,7.355728485E0
9.468621750E0,1.268335627E0,-7.207390280E0,3.333871865E-1,7.325728423E0
9.478636750E0,1.586822062E0,-7.117387013E0,-5.715723467E-1,7.314499101E0
9.488651750E0,2.420623612E0,-6.752993796E0,-1.911828836E-1,7.176273042E0
9.498666750E0,3.465659043E0,-5.340973077E0,1.409329830E0,6.520965924E0
9.508680750E0,4.255871939E0,-2.776402418E0,1.956628046E0,5.445112456E0
9.518695750E0,3.263594180E0,3.933860511E-1,2.536598164E0,4.152123529E0
9.528710750E0,1.091550982E0,5.233040493E0,2.966967269E0,6.113844218E0
9.538725750E0,-1.800071771E0,1.313694175E1,-3.579628877E-3,1.325969493E1
9.548740750E0,-6.346070856E0,2.489369034E1,-2.715984893E0,2.583302165E1
9.558754750E0,-8.519723573E0,2.903810090E1,-3.337638642E0,3.044563721E1
9.568769750E0,-6.504308791E0,2.092641767E1,-6.319226289E0,2.280687638E1
9.578784750E0,-3.667109363E0,1.609904296E1,-9.017522185E0,1.881336179E1
9.588799750E0,-1.553623033E0,1.792679487E1,-5.486299775E0,1.881178365E1
9.598813750E0,-5.559420083E-1,1.958437058E1,-4.064625303E0,2.000944330E1
9.608828750E0,-7.924597619E-1,1.925103601E1,-5.616267006E0,2.006920116E1
9.618843750E0,-1.008288020E0,1.709852391E1,-4.463497796E0,1.770025359E1
9.628858750E0,-1.256096235E0,1.399913942E1,-1.965319347E0,1.419211621E1
9.638872750E0,-1.281764050E0,1.164635082E1,-1.179751772E0,1.177591698E1
9.648887750E0,-1.729012898E0,9.822606597E0,4.833308458E-2,9.973736614E0
9.658902750E0,-1.990321749E0,7.449044008E0,1.531416185E0,7.860971494E0
9.668917750E0,-1.319681489E0,4.404667205E0,2.950096883E0,5.463124018E0
9.678931750E0,-5.872118944E-1,8.602523071E-1,3.518446244E0,3.669375398E0
9.688946750E0,1.403689168E-1,-2.496017902E0,3.511766385E0,4.310720583E0
9.698961750E0,6.600573841E-1,-5.361784487E0,3.130461266E0,6.243732567E0
9.708976750E0,7.732580904E-1,-7.297505229E0,2.526414653E0,7.761074773E0
9.718990750E0,5.196523608E-1,-8.036376940E0,1.852730041E0,8.263534444E0
9.729005750E0,-1.886609612E-1,-8.510378553E0,1.938864205E0,8.730482832E0
9.739020750E0,5.215047587E-2,-9.358212544E0,2.309026870E0,9.639007561E0
9.749035750E0,1.134626762E0,-1.082545320E1,2.451346929E0,1.115737051E1
9.759050750E0,2.339726214E0,-1.261638752E1,1.300598516E0,1.289725201E1
9.769064750E0,2.845203973E0,-1.373646846E1,-3.565830910E-1,1.403256580E1
9.779079750E0,2.407567656E0,-1.332287619E1,-8.570673287E-1,1.356576486E1
9.789094750E0,1.408857375E0,-1.178508420E1,-5.554551180E-1,1.188198717E1
9.799109750E0,7.013416502E-1,-1.036620469E1,-3.142761469E-1,1.039465485E1
9.809123750E0,3.396881096E-1,-9.569516884E0,-1.760643776E-1,9.577162423E0
9.819138750E0,2.262846876E-2,-9.251772754E0,1.699973067E-1,9.253362103E0
9.829154375E0,-2.119758931E-1,-9.095615258E0,6.392901206E-1,9.120517670E0
9.839169375E0,-3.440437736E-1,-9.002855029E0,9.559635528E-1,9.060001717E0
9.849183375E0,-3.348241398E-1,-8.862568631E0,9.020347559E-1,8.914645066E0
9.859198375E0,-3.250432098E-1,-8.697025770E0,7.059717679E-1,8.731684057E0
9.869213375E0,-1.649414385E-1,-8.546514931E0,5.944256774E-1,8.568749327E0
9.879228375E0,5.904814381E-2,-8.553811671E0,6.566727964E-1,8.579184107E0
9.889242375E0,2.074218623E-1,-8.743608783E0,1.207235001E0,8.828993981E0
9.899257375E0,5.231895973E-1,-8.596827298E0,1.778084486E0,8.794359066E0
9.909272375E0,9.258185980E-1,-7.886334463E0,1.575885429E0,8.095358313E0
9.919287375E0,1.223030231E0,-6.867255991E0,5.566398004E-1,6.997489240E0
9.929301375E0,1.606219030E0,-5.651802290E0,7.934566391E-1,5.928944437E0
9.939316375E0,2.142497583E0,-4.074835126E0,1.635735190E0,4.885714565E0
9.949331375E0,2.097368188E0,-1.806417754E0,2.448049099E0,3.695273036E0
9.959346375E0,2.179350098E0,2.240613862E0,3.169720641E0,4.451634113E0
9.969360375E0,1.259940195E0,8.788519492E0,1.694824812E0,9.038692123E0
9.979375375E0,-2.051518416E0,1.991684443E1,2.303966689E-1,2.002354870E1
9.989390375E0,-6.345815333E0,2.920505060E1,-4.195156206E0,3.017952432E1
9.999405375E0,-6.980606021E0,2.480261644E1,-5.411647203E0,2.632839851E1
1.000942038E1,-2.337463926E0,1.878050005E1,-4.789191216E0,1.952196896E1
1.001943438E1,1.112655338E-1,2.043730977E1,-4.046130559E0,2.083427904E1
1.002944938E1,-5.057794031E-1,2.116610205E1,-4.008918879E0,2.154834378E1
1.003946438E1,-2.267135955E0,2.021709661E1,-4.088628123E0,2.075060917E1
1.004947938E1,-2.552390616E0,1.758798731E1,-3.516347094E0,1.811675171E1
1.005949338E1,-2.082239102E0,1.422677387E1,-1.800087558E0,1.449058762E1
1.006950838E1,-1.511376607E0,1.145683321E1,-7.313065108E-1,1.157920963E1
1.007952338E1,-1.051629702E0,9.183686020E0,-8.089396276E-2,9.244055267E0
1.008953838E1,-6.493227732E-1,6.961480363E0,5.373533443E-1,7.012316131E0
1.009955238E1,-2.219327512E-1,4.179127234E0,1.198592743E0,4.353272694E0
1.010956738E1,4.479734637E-2,6.554331136E-1,1.958572830E0,2.065818699E0
1.011958238E1,5.694286843E-1,-2.830493256E0,2.405417050E0,3.757921272E0
1.012959738E1,1.260060940E0,-5.956477894E0,2.296921964E0,6.507167815E0
1.013961138E1,1.609838164E0,-8.371075072E0,1.429717902E0,8.643527640E0
1.014962638E1,1.006063154E0,-9.581210146E0,5.863493570E-1,9.651712620E0
1.015964138E1,-1.051292829E-2,-9.899539583E0,1.175801539E0,9.969127531E0
1.016965638E1,-2.011164076E-1,-1.035802093E1,1.948539008E0,1.054162462E1
1.017967038E1,3.917172557E-1,-1.105020847E1,2.191804229E0,1.127229149E1
1.018968538E1,1.099315427E0,-1.165474274E1,1.511791760E0,1.180368744E1
1.019970038E1,1.348543931E0,-1.172488594E1,6.011499389E-1,1.181748291E1
1.020971538E1,1.001109393E0,-1.124386124E1,3.749071685E-1,1.129456466E1
1.021972938E1,6.144947103E-1,-1.049644207E1,7.954213035E-1,1.054445802E1
1.022974437E1,5.161898589E-1,-1.017743786E1,8.840346873E-1,1.022879322E1
1.023975938E1,3.056684607E-1,-1.020732532E1,7.179784405E-1,1.023710977E1
1.024977437E1,-2.210041037E-2,-1.018432705E1,4.604098336E-1,1.019475273E1
1.025978837E1,-4.099810338E-1,-1.010476282E1,2.980127013E-1,1.011746646E1
1.026980338E1,-8.515712383E-1,-1.001731186E1,3.931293583E-1,1.006112624E1
1.027981838E1,-1.126105322E0,-9.876779881E0,6.337914721E-1,9.960953049E0
1.028983338E1,-1.118338173E0,-9.521038204E0,8.524983875E-1,9.624323470E0
1.029984738E1,-8.909086740E-1,-9.095698873E0,9.782625675E-1,9.191433725E0
1.030986238E1,-5.891335453E-1,-8.763767059E0,9.749601332E-1,8.837490518E0
1.031987738E1,-3.544143587E-1,-8.557954423E0,9.050881720E-1,8.612977305E0
1.032989238E1,-3.466934759E-2,-8.238475424E0,7.921292480E-1,8.276542033E0
1.033990638E1,1.556718841E-1,-7.499001449E0,6.180892861E-1,7.526040848E0
1.034992138E1,3.302218329E-1,-6.456025992E0,1.151666499E0,6.566251122E0
1.035993638E1,6.818879637E-1,-5.308750241E0,2.086290053E0,5.744598028E0
1.036995138E1,1.888374082E0,-3.699650288E0,8.493642068E-1,4.239668440E0
1.037996538E1,2.452205885E0,-1.616650463E0,2.119253147E-1,2.944789425E0
1.038998038E1,2.801003701E0,1.604742608E0,2.471664834E0,4.065703829E0
1.039999538E1,3.261422817E0,6.571275197E0,3.178573326E0,7.995115065E0
1.041001038E1,3.489040889E-2,1.609580828E1,1.069468168E-1,1.609620139E1
1.042002438E1,-6.280428843E0,3.036231749E1,-6.645974547E0,3.170935331E1
1.043003938E1,-7.389491286E0,3.228237003E1,-8.109828494E0,3.409582547E1
1.044005438E1,-3.073316427E0,2.061919794E1,-7.383841707E0,2.211600587E1
1.045006938E1,2.039070278E-1,1.749380621E1,-6.199393451E0,1.856090819E1
1.046008438E1,-6.165259599E-1,1.907930797E1,-5.091436132E0,1.975658925E1
1.047009838E1,-1.925031154E0,1.955421181E1,-4.324552749E0,2.011901342E1
1.048011338E1,-2.705338575E0,1.786024303E1,-3.940025815E0,1.848867062E1
1.049012838E1,-1.540325587E0,1.503553033E1,-2.957049222E0,1.540077645E1
1.050014338E1,-2.049571878E-1,1.282920746E1,-1.701616938E0,1.294318631E1
1.051015737E1,2.217705640E-1,1.053881099E1,-4.434773934E-1,1.055046878E1
1.052017238E1,6.946708542E-1,7.992899383E0,4.178736055E-1,8.033904810E0
1.053018737E1,9.683815771E-1,4.717180417E0,1.374069951E0,5.007756203E0
1.054020238E1,1.250846313E0,9.426261270E-1,2.291995100E0,2.776040715E0
1.055021638E1,1.404926000E0,-3.127065788E0,2.509374697E0,4.248448997E0
1.056023137E1,1.483707291E0,-6.815177180E0,2.133640805E0,7.293863887E0
1.057024638E1,1.489960595E0,-9.378029927E0,1.741501966E0,9.654028019E0
1.058026138E1,8.304060718E-1,-1.030121874E1,1.043192389E0,1.038715226E1
1.059027538E1,-2.298063925E-1,-1.027495656E1,5.798870873E-1,1.029387256E1
1.060029038E1,-7.111924544E-1,-1.035708070E1,9.655822957E-1,1.042627759E1
1.061030538E1,-4.919177744E-1,-1.125511362E1,1.323392133E0,1.134332105E1
1.062032038E1,1.242328674E-2,-1.220905879E1,1.648649350E0,1.231987482E1
1.063033438E1,6.978853610E-1,-1.252716135E1,1.769634089E0,1.267077031E1
1.064034938E1,1.211417076E0,-1.156705088E1,1.651163653E0,1.174693742E1
1.065036438E1,9.929545739E-1,-1.033898123E1,1.234578774E0,1.045966904E1
1.066037938E1,5.231112081E-1,-9.936693960E0,1.255062740E0,1.002929283E1
1.067039338E1,2.210425857E-1,-9.815109297E0,1.268650500E0,9.899227466E0
1.068040838E1,-7.905082902E-2,-9.852329164E0,1.291278055E0,9.936902837E0
1.069042338E1,-2.818886752E-1,-9.822560989E0,1.456175383E0,9.933912238E0
1.070043838E1,-3.508542815E-1,-9.612878666E0,1.500342911E0,9.735582357E0
1.071045238E1,-4.898630628E-1,-9.327380176E0,1.469910493E0,9.455190300E0
1.072046738E1,-3.482084529E-1,-9.057691387E0,1.613570734E0,9.206879651E0
1.073048238E1,-7.461485714E-2,-8.825907758E0,1.760519450E0,9.000091326E0
1.074049738E1,2.393788875E-1,-8.680741859E0,1.485743583E0,8.810222215E0
1.075051138E1,4.761490032E-1,-8.635587906E0,1.107896508E0,8.719376756E0
1.076052638E1,7.899243361E-1,-8.280024569E0,1.612627176E-1,8.319182231E0
1.077054138E1,8.706357926E-1,-7.614457061E0,-6.028257509E-1,7.687741015E0
1.078055638E1,1.125836935E0,-6.718294079E0,-6.670784283E-1,6.844558260E0
1.079057038E1,1.923976024E0,-5.543245223E0,2.873321772E-1,5.874675406E0
1.080058538E1,3.343001708E0,-3.889686550E0,1.806381501E0,5.437677446E0
1.081060037E1,4.475239590E0,-8.205584836E-1,2.881133652E0,5.385352053E0
1.082061538E1,4.617183089E0,4.010285373E0,3.110461450E0,6.861176202E0
1.083062888E1,2.071030867E0,1.166784518E1,-2.994125247E-1,1.185400472E1
1.084064388E1,-4.861413393E0,2.243033556E1,-4.269999397E0,2.334493925E1
1.085065888E1,-7.805482088E0,2.928672217E1,-5.441334686E0,3.079359948E1
1.086067388E1,-4.295259953E0,2.478050695E1,-4.144304141E0,2.548917495E1
1.087068788E1,-1.348968439E0,1.828680793E1,-2.995163713E0,1.857950661E1
1.088070288E1,-7.060471970E-1,1.788175610E1,-4.291565098E0,1.840307678E1
1.089071788E1,-2.063819203E0,1.842178857E1,-5.463958733E0,1.932553981E1
1.090073288E1,-4.004230289E0,1.672137382E1,-3.904514505E0,1.763188691E1
1.091074688E1,-2.775092057E0,1.424907982E1,-3.329099368E0,1.489363335E1
1.092076188E1,-1.393607252E0,1.207101070E1,-2.684093009E0,1.244410687E1
1.093077688E1,-1.216732779E0,1.069361720E1,-1.521042055E0,1.086956560E1
1.094079188E1,-1.273136191E0,9.840424232E0,-5.381707120E-1,9.937024331E0
1.095080588E1,-1.030094041E0,8.449973307E0,7.579956150E-1,8.546209685E0
1.096082087E1,-3.004509537E-1,5.865444347E0,1.670972850E0,6.106214739E0
1.097083588E1,5.830147630E-1,2.131314783E0,2.337292310E0,3.216417924E0
1.098085087E1,1.596341913E0,-1.905871875E0,2.402009293E0,3.456921138E0
1.099086487E1,2.150286367E0,-5.446618230E0,2.132763723E0,6.232019151E0
1.100087988E1,1.686519427E0,-7.738962994E0,1.751135838E0,8.111866167E0
1.101089488E1,1.097291778E0,-8.714993094E0,1.440812409E0,8.901184993E0
1.102090888E1,3.612646642E-1,-8.803743303E0,1.339155056E0,8.912336650E0
1.103092388E1,-4.218386024E-2,-8.736076984E0,2.096426786E0,8.984198675E0
1.104093888E1,1.320219251E-1,-9.343376403E0,2.582866012E0,9.694705217E0
1.105095388E1,6.484538770E-1,-1.036957152E1,2.783160045E0,1.075613712E1
1.106096888E1,1.183300447E0,-1.154780769E1,1.879320838E0,1.175941790E1
1.107098288E1,1.055550772E0,-1.200738598E1,7.428478181E-1,1.207656112E1
1.108099788E1,3.576607329E-1,-1.143506051E1,1.266600466E-1,1.144135363E1
1.109101288E1,-2.819118083E-1,-1.069144437E1,-1.787435581E-2,1.069517538E1
1.110102788E1,-4.328535873E-1,-1.024764538E1,1.503582269E-1,1.025788505E1
1.111104188E1,-4.700468490E-1,-9.985117092E0,2.621569902E-1,9.999611676E0
1.112105688E1,-6.058405387E-1,-9.857149608E0,1.727922392E-1,9.877261681E0
1.113107188E1,-8.770487264E-1,-9.754602309E0,-1.049855876E-1,9.794513906E0
1.114108588E1,-1.146805635E0,-9.592600522E0,-3.913822103E-1,9.668832813E0
1.115110088E1,-1.247637361E0,-9.314418068E0,-5.720190740E-1,9.414998075E0
1.116111588E1,-1.231312519E0,-9.105366660E0,-1.537420106E-1,9.189530409E0
1.117113088E1,-1.107064449E0,-8.908859868E0,5.915967214E-1,8.996852923E0
1.118114488E1,-8.108219925E-1,-8.465478369E0,9.500906825E-1,8.557127358E0
1.119115988E1,-3.361850792E-1,-7.612853170E0,1.123817307E0,7.702695576E0
1.120117488E1,1.479441856E-1,-6.584749521E0,4.597572112E-1,6.602438219E0
1.121118988E1,6.731434527E-1,-5.459937603E0,2.344382644E-1,5.506269339E0
1.122120388E1,1.497314054E0,-4.154283584E0,6.929663908E-1,4.469924372E0
1.123121888E1,2.410880396E0,-2.813742152E0,1.230940636E0,3.904446700E0
1.124123388E1,2.933957398E0,-9.076129997E-1,3.263168503E0,4.481086481E0
1.125124888E1,3.896999955E0,2.923142388E0,4.462977394E0,6.606779646E0
1.126126288E1,2.806984525E0,9.086797657E0,1.373605682E0,9.609154300E0
1.127127787E1,-3.354576856E0,1.919287259E1,-3.490813472E0,1.979407292E1
1.128129288E1,-6.543643010E0,3.016596097E1,-7.416029459E0,3.174589671E1
1.129130787E1,-2.210274121E0,3.010159950E1,-7.828164607E0,3.118127266E1
1.130132188E1,1.392901493E0,2.151180347E1,-4.175708367E0,2.195755915E1
1.131133688E1,1.529903218E0,1.738398965E1,-5.149862680E0,1.819518578E1
1.132135188E1,3.621551952E-1,1.733178805E1,-4.338236403E0,1.787015189E1
1.133136688E1,-1.667771207E0,1.755028329E1,-3.100798341E0,1.789996801E1
1.134138088E1,-2.484707926E0,1.540811959E1,-1.537748719E0,1.568274829E1
1.135139588E1,-2.152990704E0,1.168682992E1,-3.949759090E-1,1.189005335E1
1.136141088E1,-1.486706035E0,9.068761336E0,2.389148927E-1,9.192921588E0
1.137142588E1,-7.651587465E-1,7.155679843E0,9.211820483E-1,7.255191127E0
1.138143988E1,-1.702188613E-1,5.222644143E0,1.381000071E0,5.404826316E0
1.139145488E1,4.137627205E-1,2.905874975E0,1.800006866E0,3.443157516E0
1.140146988E1,8.175123766E-1,1.094692326E-1,1.655009952E0,1.849153303E0
1.141148488E1,1.205663415E0,-2.887781936E0,1.600874090E0,3.515068511E0
1.142149888E1,1.576621594E0,-5.532041958E0,1.735265325E0,6.008358314E0
1.143151388E1,9.296485242E-1,-7.311492353E0,1.645262643E0,7.551758469E0
1.144152888E1,-2.079082775E-1,-8.207464716E0,1.739340835E0,8.392318479E0
1.145154388E1,-6.995962563E-1,-8.733091396E0,1.801361082E0,8.944340222E0
1.146155788E1,-3.226075521E-1,-9.493610085E0,1.651118045E0,9.641519531E0
1.147157288E1,2.562553954E-1,-1.069095788E1,1.566487784E0,1.080815115E1
1.148158788E1,6.365167862E-1,-1.190913872E1,1.028004831E0,1.197036059E1
1.149160288E1,5.820651752E-1,-1.255113961E1,2.198787157E-1,1.256655291E1
1.150161688E1,8.588273406E-2,-1.252476984E1,2.552122521E-1,1.252766414E1
1.151163188E1,-4.690782577E-1,-1.219389345E1,7.541727054E-1,1.222619517E1
1.152164688E1,-7.136573482E-1,-1.192891752E1,8.723882031E-1,1.198204662E1
1.153166188E1,-8.179591039E-1,-1.168724859E1,1.012183435E0,1.175947924E1
1.154167588E1,-8.845571360E-1,-1.131501951E1,1.156774553E0,1.140834060E1
1.155169087E1,-9.762420622E-1,-1.060614051E1,1.065362692E0,1.070412363E1
1.156170588E1,-1.050833238E0,-9.795046915E0,1.051767915E0,9.907240298E0
1.157172087E1,-7.785971099E-1,-8.990676448E0,1.079281404E0,9.088637126E0
1.158173487E1,-4.436896473E-1,-8.392469450E0,1.081350149E0,8.473471668E0
1.159174988E1,-1.619909701E-1,-8.142460050E0,1.246242800E0,8.238872366E0
1.160176488E1,1.999905993E-1,-8.119405648E0,1.589668486E0,8.275976692E0
1.161177988E1,7.691830927E-1,-7.925487419E0,1.578778632E0,8.117729696E0
1.162179388E1,1.506306487E0,-7.175892498E0,7.165588097E-1,7.367214461E0
1.163180888E1,1.982830296E0,-5.856930217E0,-9.813893661E-3,6.183473446E0
1.164182388E1,2.411207255E0,-3.959858401E0,-4.236611795E-1,4.655522288E0
1.165183888E1,2.951840522E0,-1.963998461E0,-4.608073711E-1,3.575331573E0
1.166185288E1,3.550758542E0,1.039332642E0,1.363163724E0,3.942881422E0
1.167186788E1,3.446730144E0,5.498573665E0,2.392991863E0,6.916695099E0
1.168188288E1,2.568132929E-1,1.155204108E1,-3.690141984E-1,1.156078620E1
1.169189688E1,-5.712659526E0,2.095972574E1,-2.196747465E0,2.183506999E1
1.170191188E1,-7.319362705E0,2.747171602E1,-3.150342969E0,2.860407161E1
1.171192688E1,-5.109204066E0,2.419136723E1,-3.996704046E0,2.504595492E1
1.172194188E1,-1.297428741E0,2.015135286E1,-4.529278972E0,2.069479914E1
1.173195588E1,-4.469454501E-1,1.927497802E1,-4.435886074E0,1.978387281E1
1.174197088E1,-1.127950192E0,1.926623761E1,-5.307380823E0,2.001570569E1
1.175198588E1,-1.832943648E0,1.894573768E1,-5.153761604E0,1.971958208E1
1.176200088E1,-2.343973046E0,1.700003107E1,-3.005019779E0,1.742198065E1
1.177201488E1,-2.093745838E0,1.441570559E1,-2.092036697E0,1.471641793E1
1.178202988E1,-1.217674474E0,1.223900940E1,-8.286720800E-1,1.232731842E1
1.179204488E1,-9.032759006E-1,9.281190096E0,3.372977313E-1,9.331139625E0
1.180205988E1,-2.588375258E-1,6.200776318E0,7.959990084E-1,6.257015121E0
1.181207388E1,6.636941329E-1,3.017530482E0,1.409569566E0,3.396007431E0
1.182208888E1,1.486752228E0,-4.395428020E-1,1.961487082E0,2.500212318E0
1.183210354E1,2.313053555E0,-3.668339617E0,2.121201439E0,4.827673129E0
1.184211854E1,2.466785917E0,-6.647508856E0,1.916447150E0,7.344874160E0
1.185213254E1,1.990840105E0,-8.620765799E0,1.408177929E0,8.959018493E0
1.186214754E1,7.413469110E-1,-9.304015287E0,1.340488368E0,9.429273819E0
1.187216254E1,-2.717159818E-1,-9.606303472E0,1.545067095E0,9.733556816E0
1.188217754E1,-3.236687852E-1,-1.012212554E1,1.844628139E0,1.029392247E1
1.189219154E1,1.917798660E-1,-1.097015541E1,2.211985309E0,1.119258542E1
1.190220654E1,7.836412105E-1,-1.184767513E1,1.691346889E0,1.199342128E1
1.191222154E1,8.314837137E-1,-1.220144922E1,8.671689785E-1,1.226045310E1
1.192223654E1,6.309215856E-1,-1.170185610E1,4.303270054E-1,1.172675060E1
1.193225054E1,3.839586584E-1,-1.075457091E1,5.791434677E-1,1.077699526E1
1.194226554E1,2.018563728E-1,-1.025992336E1,9.155417510E-1,1.030266908E1
1.195228054E1,3.875739187E-2,-1.022327302E1,1.176306592E0,1.029079737E1
1.196229554E1,-4.616314631E-2,-1.021005012E1,1.098777264E0,1.026910736E1
1.197230954E1,-1.862785132E-1,-1.015993948E1,1.066615239E0,1.021747220E1
1.198232454E1,-2.682872476E-1,-1.004742268E1,1.109671650E0,1.011207455E1
1.199233954E1,-2.985363194E-1,-9.860166771E0,1.225768189E0,9.940549298E0
1.200235454E1,-1.991676037E-1,-9.634129202E0,1.459973735E0,9.746160091E0
1.201236854E1,-1.167855611E-1,-9.217575898E0,1.809789258E0,9.394289832E0
1.202238354E1,-1.832389112E-1,-8.652626107E0,2.425368919E0,8.987988064E0
1.203239854E1,2.565524340E-2,-7.918077242E0,2.749660177E0,8.381958989E0
1.204241354E1,4.912754212E-1,-7.121485326E0,2.515938781E0,7.568807881E0
1.205242754E1,9.523424453E-1,-6.424867349E0,2.381409552E0,6.917874532E0
1.206244254E1,1.194999556E0,-5.882822272E0,8.793838850E-1,6.067036990E0
1.207245754E1,1.061263355E0,-5.658885022E0,-4.406928031E-1,5.774380465E0
1.208247254E1,1.423782393E0,-5.321617624E0,-1.073350719E-1,5.509835864E0
1.209248654E1,2.545894944E0,-4.030831904E0,1.417627029E0,4.973816774E0
1.210250154E1,4.077255873E0,-1.044416796E0,3.454658968E0,5.445134570E0
1.211251654E1,4.977772692E0,3.729722518E0,2.279729980E0,6.624667525E0
1.212253154E1,2.825602937E0,9.715331240E0,-8.317559747E-1,1.015202005E1
1.213254554E1,-1.290238712E0,1.987182087E1,-4.858939143E0,2.049788453E1
1.214256054E1,-5.369799265E0,3.035367296E1,-8.851891615E0,3.207079967E1
1.215257554E1,-7.006572336E0,3.055691750E1,-9.160424627E0,3.266084265E1
1.216259054E1,-6.489391959E0,2.428066591E1,-7.091858654E0,2.611431416E1
1.217260454E1,-6.393728587E0,1.991439094E1,-5.717381737E0,2.168296994E1
1.218261954E1,-7.174771587E0,1.787290576E1,-5.289752637E0,1.997247082E1
1.219263454E1,-7.178362947E0,1.676300599E1,-4.210430303E0,1.871510053E1
1.220264954E1,-5.637664892E0,1.574749900E1,-2.490786399E0,1.691067731E1
1.221266354E1,-3.812792741E0,1.362109354E1,-1.771649040E0,1.425518565E1
1.222267854E1,-2.135712182E0,1.184157883E1,-1.228169056E0,1.209515005E1
1.223269354E1,-7.656683314E-1,9.981625135E0,-8.766145706E-3,1.001095226E1
1.224270854E1,4.807329645E-1,7.712668650E0,1.258849397E0,7.829499581E0
1.225272254E1,1.645105353E0,4.879502631E0,2.307424732E0,5.642705596E0
1.226273754E1,2.192138982E0,1.225364732E0,2.914404309E0,3.847173575E0
1.227275254E1,2.343279859E0,-2.449103937E0,3.180633885E0,4.648171953E0
1.228276754E1,2.139245654E0,-5.275064431E0,2.825540664E0,6.355026103E0
1.229278154E1,1.492502672E0,-7.257456479E0,2.399140649E0,7.788075155E0
1.230279654E1,8.114876980E-1,-8.914529328E0,1.915022768E0,9.153942191E0
1.231281154E1,3.757409084E-1,-1.053337074E1,1.932845081E0,1.071582804E1
1.232282554E1,6.527273145E-1,-1.205454027E1,2.204608462E0,1.227184959E1
1.233284054E1,1.507611001E0,-1.334517981E1,1.977855778E0,1.357492646E1
1.234285554E1,2.287854686E0,-1.428253291E1,1.302326953E0,1.452312229E1
1.235287054E1,2.625209793E0,-1.443172696E1,7.701519033E-1,1.468875772E1
1.236288454E1,2.349761205E0,-1.330290093E1,8.302460774E-1,1.353432153E1
1.237289954E1,1.608908165E0,-1.183003525E1,9.720061199E-1,1.197844378E1
1.238291454E1,9.640997341E-1,-1.056025390E1,1.227956218E0,1.067503289E1
1.239292954E1,4.685739353E-1,-9.545125224E0,1.352545180E0,9.651857621E0
1.240294354E1,1.248935845E-1,-8.816622380E0,1.130616376E0,8.889697520E0
1.241295854E1,-8.404992431E-2,-8.383280550E0,7.031007850E-1,8.413133060E0
1.242297354E1,-2.639298660E-1,-8.257644936E0,4.693185782E-1,8.275180892E0
1.243298854E1,-3.522368556E-1,-8.285860090E0,6.032290991E-1,8.315253068E0
1.244300254E1,-4.139574328E-1,-8.428927424E0,7.553690457E-1,8.472824834E0
1.245301754E1,-5.446266228E-1,-8.685780405E0,7.936167797E-1,8.738948849E0
1.246303254E1,-6.035674337E-1,-8.809745470E0,8.793978453E-1,8.874077386E0
1.247304754E1,-5.610958904E-1,-8.685689188E0,6.907877183E-1,8.731163321E0
1.248306154E1,-4.554645144E-1,-8.311113045E0,4.725742348E-1,8.336988328E0
1.249307654E1,-3.025913635E-1,-7.732149233E0,2.540124035E-1,7.742235827E0
1.250309154E1,2.444755948E-1,-7.042464300E0,4.165556431E-3,7.046707677E0
1.251310654E1,8.226365840E-1,-6.387206603E0,1.073558149E0,6.528833451E0
1.252312054E1,1.520279286E0,-5.256498352E0,1.329461542E0,5.631118186E0
1.253313554E1,2.291322378E0,-3.225918816E0,2.453334982E0,4.655702200E0
1.254315054E1,3.207619662E0,8.984363794E-2,3.472639157E0,4.728225723E0
1.255316554E1,3.754114763E0,5.634396883E0,2.189746009E0,7.115812917E0
1.256317954E1,-3.124714769E-1,1.443466577E1,-1.823209349E-1,1.443919857E1
1.257319454E1,-8.852268176E0,2.924260375E1,-4.057625016E0,3.082136997E1
1.258320954E1,-9.783578771E0,3.555595476E1,-7.410805557E0,3.761468293E1
1.259322354E1,-2.922714079E0,2.550276205E1,-3.612494030E0,2.592263958E1
1.260323854E1,8.864310224E-1,1.853895975E1,-3.548672841E0,1.889634535E1
1.261325354E1,8.579661188E-1,1.750922999E1,-4.846448321E0,1.818783391E1
1.262326854E1,-1.286987368E0,1.742085050E1,-5.092266437E0,1.819542651E1
1.263328254E1,-3.115610215E0,1.794359743E1,-4.360501431E0,1.872681736E1
1.264329754E1,-3.668817042E0,1.562993839E1,-2.577541537E0,1.626034787E1
1.265331254E1,-3.383729027E0,1.176132345E1,-1.057789378E0,1.228402499E1
1.266332754E1,-2.361906164E0,9.502993112E0,9.721931577E-2,9.792595693E0
1.267334154E1,-1.425858740E0,7.986586145E0,1.185541538E0,8.199032878E0
1.268335654E1,-6.601306935E-1,6.146667354E0,1.509582828E0,6.363657156E0
1.269337154E1,3.102448571E-2,3.641925990E0,1.659245675E0,4.002209845E0
1.270338654E1,7.232540908E-1,7.433062398E-1,1.982385031E0,2.237286539E0
1.271340054E1,1.230093082E0,-2.219898931E0,2.027430811E0,3.248315863E0
1.272341554E1,1.501001893E0,-4.825635742E0,1.665194632E0,5.320962334E0
1.273343054E1,1.500910676E0,-6.883657431E0,1.096624246E0,7.130221401E0
1.274344554E1,7.241121697E-1,-8.275811650E0,6.106750897E-1,8.329845195E0
1.275345954E1,-2.153462282E-1,-9.256508998E0,6.625012279E-1,9.282684995E0
1.276347454E1,-5.416340178E-1,-1.032128054E1,1.175326672E0,1.040209556E1
1.277348954E1,-1.325335564E-1,-1.162995640E1,1.462734790E0,1.172233100E1
1.278350454E1,8.426282144E-1,-1.268410530E1,1.111031785E0,1.276052276E1
1.279351854E1,1.795866745E0,-1.289932961E1,5.685973565E-1,1.303614762E1
1.280353354E1,2.288835264E0,-1.188271399E1,5.538459277E-1,1.211381046E1
1.281354854E1,1.948981057E0,-1.075332195E1,8.927504738E-1,1.096491967E1
1.282356254E1,1.019335164E0,-1.015877940E1,1.305711322E0,1.029294540E1
1.283357792E1,2.681255355E-1,-9.741703352E0,1.427577821E0,9.849398658E0
1.284359292E1,-4.670962343E-2,-9.490792311E0,1.268768613E0,9.575337816E0
1.285360792E1,-3.493559325E-1,-9.524088696E0,1.087785521E0,9.592371573E0
1.286362192E1,-6.407987022E-1,-9.599585606E0,6.138336825E-1,9.640511323E0
1.287363692E1,-1.069752781E0,-9.681993924E0,5.872336753E-1,9.758597274E0
1.288365192E1,-1.523736744E0,-9.764748398E0,8.599384578E-1,9.920261040E0
1.289366692E1,-1.753804215E0,-9.746694535E0,1.080584310E0,9.962005121E0
1.290368092E1,-1.591072695E0,-9.484357451E0,1.185190998E0,9.689645312E0
1.291369592E1,-1.128032857E0,-9.097159508E0,1.596020755E0,9.304732747E0
1.292371092E1,-6.873670971E-1,-8.581328083E0,1.968582094E0,8.831023761E0
1.293372592E1,-2.560422644E-1,-8.029855540E0,1.607366838E0,8.193153593E0
1.294373992E1,2.862750737E-1,-7.608703986E0,8.056681835E-1,7.656593954E0
1.295375492E1,7.051338619E-1,-7.390229205E0,4.917474742E-1,7.440061629E0
1.296376992E1,1.418878918E0,-6.837904723E0,9.782239759E-1,7.051743084E0
1.297378392E1,2.313903447E0,-5.308566054E0,1.675671673E0,6.028507134E0
1.298379892E1,3.175814025E0,-2.846518720E0,1.770295994E0,4.617619674E0
1.299381392E1,4.375290501E0,1.050528306E0,1.959583375E0,4.907824742E0
1.300382892E1,5.068264201E0,7.831948341E0,5.381172100E-1,9.344318432E0
1.301384292E1,1.153018594E0,2.157406463E1,-5.307201898E0,2.224715956E1
1.302385792E1,-5.165647824E0,3.934572234E1,-8.256474323E0,4.053318581E1
1.303387292E1,-8.609188896E0,3.157678418E1,-5.796506259E0,3.323869608E1
1.304388792E1,-6.409347085E0,1.509661970E1,-5.171392128E0,1.719682974E1
1.305390192E1,-2.115205412E0,1.477131687E1,-4.902551186E0,1.570671526E1
1.306391692E1,-3.354752272E0,1.614618789E1,-5.301021391E0,1.732208342E1
1.307393192E1,-6.195870504E0,1.882053710E1,-5.341307538E0,2.052147642E1
1.308394692E1,-6.634333910E0,1.962879421E1,-4.398172703E0,2.118130949E1
1.309396092E1,-4.361652456E0,1.689400467E1,-3.286911707E0,1.775486397E1
1.310397592E1,-1.368421540E0,1.407044972E1,-2.307198007E0,1.432387153E1
1.311399092E1,9.722665402E-1,1.173717211E1,-1.284265928E0,1.184718745E1
1.312400492E1,1.904832533E0,9.131504883E0,-2.951091202E-1,9.332730458E0
1.313401992E1,2.425413651E0,6.149604410E0,5.636714427E-1,6.634605585E0
1.314403492E1,2.651934200E0,2.905902457E0,1.408855914E0,4.178743720E0
1.315404992E1,2.416427650E0,-3.209905046E-1,2.029654068E0,3.172010896E0
1.316406392E1,1.889142114E0,-3.412343838E0,2.084615264E0,4.422507117E0
1.317407892E1,1.278277940E0,-6.173482100E0,1.846089942E0,6.569164620E0
1.318409392E1,6.087764623E-1,-8.304229118E0,1.140596769E0,8.404272189E0
1.319410892E1,-2.424284846E-1,-9.766704876E0,1.029170912E0,9.823771602E0
1.320412292E1,-6.946711466E-1,-1.143786367E1,2.233759025E0,1.167462944E1
1.321413792E1,-1.504780948E-3,-1.311739333E1,2.383942566E0,1.333226133E1
1.322415292E1,8.972461787E-1,-1.423892321E1,1.454899521E0,1.434115468E1
1.323416792E1,1.140626005E0,-1.445970355E1,1.070349197E0,1.454406070E1
1.324418192E1,1.013379191E0,-1.335369569E1,1.598764415E0,1.348718553E1
1.325419692E1,7.463307121E-1,-1.166091506E1,1.955219013E0,1.184722884E1
1.326421192E1,4.161647567E-1,-9.980308342E0,1.967492173E0,1.018090237E1
1.327422692E1,1.413582017E-1,-8.502905227E0,1.348871959E0,8.610391106E0
1.328424092E1,-1.200839755E-1,-7.628711988E0,3.322644480E-1,7.636888530E0
1.329425592E1,-5.267057839E-1,-7.482709352E0,-1.875459337E-1,7.503567932E0
1.330427092E1,-7.716962260E-1,-7.681490711E0,3.997858286E-2,7.720259898E0
1.331428492E1,-6.745000067E-1,-7.917515325E0,3.068608542E-1,7.952116873E0
1.332429992E1,-4.238371807E-1,-8.063824940E0,2.040595671E-1,8.077533715E0
1.333431492E1,-3.299361598E-1,-8.183629126E0,2.866154547E-1,8.195290840E0
1.334432992E1,-3.568698969E-1,-8.460193071E0,4.864989404E-1,8.481680502E0
1.335434392E1,-3.542295867E-1,-8.949929541E0,7.615787888E-1,8.989255789E0
1.336435892E1,-2.512802920E-1,-9.264230831E0,1.032769215E0,9.325005466E0
1.337437392E1,-5.598428321E-1,-9.598411485E0,1.406978080E0,9.717124798E0
1.338438892E1,-7.406197366E-1,-9.669142329E0,9.564466790E-1,9.744517496E0
1.339440292E1,-5.194496816E-1,-9.420707585E0,8.592975298E-1,9.474067321E0
1.340441792E1,-2.547149464E-1,-8.692528092E0,3.652146777E-1,8.703924752E0
1.341443292E1,3.700477669E-1,-7.354450677E0,6.172912873E-2,7.364013213E0
1.342444792E1,1.609798403E0,-5.005345237E0,1.176975075E-1,5.259161962E0
1.343446192E1,2.801921129E0,-1.991459325E0,6.175362857E-1,3.492566867E0
1.344447692E1,4.229757689E0,2.448064887E0,2.201502567E0,5.360082588E0
1.345449192E1,4.210166301E0,8.726371776E0,1.890946273E0,9.871714261E0
1.346450592E1,-5.863058683E-1,1.883507211E1,1.005024104E0,1.887097691E1
1.347452092E1,-9.357184603E0,3.467633004E1,-3.924737685E0,3.613043502E1
1.348453592E1,-1.046342752E1,3.641056509E1,-7.530869944E0,3.862546528E1
1.349455092E1,-4.934595097E0,2.378861569E1,-5.313403455E0,2.486927264E1
1.350456492E1,-1.702854794E0,1.892879830E1,-5.228018904E0,1.971119735E1
1.351457992E1,-1.358073430E0,1.902114455E1,-4.720118058E0,1.964504563E1
1.352459492E1,-2.175098442E0,1.916763016E1,-3.937033210E0,1.968830439E1
1.353460992E1,-3.374361202E0,1.823246742E1,-3.180407013E0,1.881287247E1
1.354462392E1,-2.557795782E0,1.509865219E1,-2.773564764E0,1.556291357E1
1.355463892E1,-1.020010518E0,1.184033571E1,-1.493320405E0,1.197764488E1
1.356465392E1,2.428310836E-1,9.263477710E0,1.330897180E-1,9.267615610E0
1.357466792E1,1.141351645E0,6.935214670E0,1.147741774E0,7.121600753E0
1.358468292E1,1.732688750E0,4.320390701E0,1.716680389E0,4.961348372E0
1.359469792E1,1.991918039E0,1.213846886E0,1.623439519E0,2.841956651E0
1.360471292E1,2.180134648E0,-2.214815946E0,1.557660828E0,3.476306088E0
1.361472692E1,2.174269891E0,-5.651405264E0,1.466993902E0,6.230401442E0
1.362474192E1,1.874584009E0,-8.638143139E0,1.259825882E0,8.928535342E0
1.363475692E1,1.526555687E0,-1.082967138E1,1.480608559E0,1.103650108E1
1.364477192E1,1.266473874E0,-1.247419260E1,1.990071781E0,1.269526773E1
1.365478592E1,9.701320142E-1,-1.369597064E1,1.584160409E0,1.382137230E1
1.366480092E1,6.140237170E-1,-1.431829916E1,1.109372345E0,1.437433209E1
1.367481592E1,1.295392156E-1,-1.383303523E1,1.347359869E0,1.389910150E1
1.368483092E1,-1.345084718E-1,-1.221707766E1,1.467419579E0,1.230562470E1
1.369484492E1,-1.944985655E-1,-1.037063221E1,1.243702769E0,1.044675254E1
1.370485992E1,-2.733207867E-1,-9.197479602E0,1.127427451E0,9.270352094E0
1.371487492E1,-4.221531826E-1,-8.904929370E0,9.494907582E-1,8.965350695E0
1.372488892E1,-4.936932814E-1,-8.930085846E0,6.011336032E-1,8.963901376E0
1.373490392E1,-5.272729638E-1,-9.019778041E0,2.723422551E-1,9.039280004E0
1.374491892E1,-5.002719837E-1,-9.078454265E0,1.737944885E-1,9.093888521E0
1.375493392E1,-4.332438889E-1,-9.069349566E0,2.109662982E-1,9.082142291E0
1.376494792E1,-1.940720111E-1,-9.040473676E0,3.842790127E-1,9.050718125E0
1.377496292E1,-1.669057558E-2,-8.995478767E0,7.146070091E-1,9.023833996E0
1.378497792E1,1.140180648E-1,-8.973878567E0,9.276326235E-1,9.022416469E0
1.379499292E1,2.434687042E-1,-9.018857104E0,1.115398559E0,9.090829138E0
1.380500692E1,4.347931087E-1,-9.008947243E0,1.261872407E0,9.107277170E0
1.381502192E1,6.562002683E-1,-8.814397514E0,1.311321141E0,8.935533866E0
1.382503692E1,7.692441961E-1,-8.357256932E0,4.976413214E-1,8.407325791E0
1.383505163E1,8.133430195E-1,-7.812731466E0,1.181044006E-1,7.855841679E0
1.384506662E1,9.495220408E-1,-7.219771759E0,1.047682978E0,7.356924356E0
1.385508163E1,1.300912512E0,-6.253634562E0,2.326400117E0,6.797974412E0
1.386509662E1,2.272096148E0,-4.294473503E0,2.454341873E0,5.443226764E0
1.387511063E1,3.302219425E0,-1.327648906E0,2.573229800E0,4.391903500E0
1.388512563E1,4.068320743E0,3.633125930E0,3.466728791E0,6.462897663E0
1.389514063E1,3.455686324E0,1.269460105E1,1.606880350E0,1.325430980E1
1.390515563E1,-2.567850654E0,2.970491971E1,-3.394215131E0,3.000827899E1
1.391516963E1,-9.722858945E0,4.184740911E1,-7.931117703E0,4.368801053E1
1.392518463E1,-7.857610601E0,2.894432091E1,-5.047169201E0,3.041364290E1
1.393519963E1,-2.289631948E0,1.836358772E1,-4.811418822E0,1.912102297E1
1.394521363E1,-1.231880869E0,1.790935145E1,-4.536966891E0,1.851611375E1
1.395522863E1,-1.786535174E0,1.707212490E1,-3.580993910E0,1.753489874E1
1.396524363E1,-3.090947537E0,1.651924610E1,-3.237056007E0,1.711484677E1
1.397525863E1,-2.981113730E0,1.487279764E1,-2.912299311E0,1.544566722E1
1.398527263E1,-1.859673901E0,1.234205020E1,-2.570420798E0,1.274329837E1
1.399528763E1,-5.142570618E-1,1.066240242E1,-1.105605569E0,1.073189868E1
1.400530263E1,6.723894542E-1,9.279371027E0,3.287737334E-1,9.309507312E0
1.401531663E1,1.588763922E0,7.216352892E0,1.190665015E0,7.484490834E0
1.402533163E1,1.909766121E0,4.128797325E0,1.649919366E0,4.839050310E0
1.403534663E1,1.785395552E0,2.768083584E-1,1.940067562E0,2.651060597E0
1.404536163E1,1.600189674E0,-3.667747879E0,2.046382806E0,4.494514889E0
1.405537563E1,1.350670271E0,-6.945698143E0,1.986301496E0,7.349314697E0
1.406539063E1,3.265032595E-1,-9.140910130E0,1.299750670E0,9.238625124E0
1.407540563E1,-9.729176277E-1,-1.064168223E1,1.377634413E0,1.077449980E1
1.408542063E1,-1.352085589E0,-1.210460413E1,2.186749896E0,1.237462935E1
1.409543463E1,-8.988082623E-1,-1.359849054E1,2.356404519E0,1.383038118E1
1.410544962E1,-1.231838769E-1,-1.447985071E1,1.669191788E0,1.457626331E1
1.411546463E1,6.733647698E-1,-1.398297070E1,9.302861631E-1,1.403005068E1
1.412547863E1,1.264715908E0,-1.211900465E1,6.188517630E-1,1.220052284E1
1.413549362E1,1.265495050E0,-1.046419116E1,5.444108605E-1,1.055448519E1
1.414550863E1,1.150063996E0,-9.412374133E0,4.482919908E-1,9.492965802E0
1.415552362E1,8.378156635E-1,-8.979366764E0,4.610997319E-1,9.030148145E0
1.416553763E1,3.879282600E-1,-8.969935205E0,4.409010736E-1,8.989138984E0
1.417555263E1,6.073502898E-3,-9.123894732E0,4.274115837E-1,9.133902377E0
1.418556763E1,-2.242383814E-1,-9.186718386E0,3.529987844E-1,9.196232147E0
1.419558263E1,-3.411867875E-1,-9.216988837E0,4.078316339E-1,9.232313810E0
1.420559663E1,-3.748544705E-1,-9.181950567E0,5.672033437E-1,9.207087038E0
1.421561163E1,-4.268905967E-1,-9.113591353E0,7.637773418E-1,9.155497734E0
1.422562663E1,-4.131856003E-1,-9.046851234E0,9.100407636E-1,9.101890671E0
1.423564063E1,-3.578560299E-1,-8.945590907E0,1.111058609E0,9.021424990E0
1.424565563E1,-2.493670830E-1,-8.728045249E0,8.267636219E-1,8.770661087E0
1.425567063E1,-1.549401051E-1,-8.264853968E0,8.229839087E-2,8.266715828E0
1.426568563E1,4.523435265E-2,-7.519694746E0,-1.302619314E-1,7.520958940E0
1.427569963E1,5.911763066E-1,-6.764911591E0,-1.474083797E-1,6.792293242E0
1.428571463E1,1.223920469E0,-5.925147343E0,-4.583258128E-1,6.067570758E0
1.429572963E1,2.393649236E0,-4.413186598E0,-5.048555430E-1,5.045854907E0
1.430574463E1,3.451984452E0,-1.856114994E0,7.676996541E-1,3.993835536E0
1.431575863E1,3.722089855E0,2.193167215E0,2.880205114E0,5.192255465E0
1.432577363E1,3.111065467E0,8.934564228E0,1.357521161E0,9.557616334E0
1.433578863E1,-2.540075211E0,2.302212758E1,-1.579515381E0,2.321562425E1
1.434580263E1,-1.119520890E1,4.035024124E1,-5.591930895E0,4.224623488E1
1.435581763E1,-6.268980580E0,3.758329202E1,-5.069900837E0,3.843836431E1
1.436583263E1,7.446173318E-3,2.396408362E1,-2.989014781E0,2.414977367E1
1.437584763E1,7.671248728E-1,2.079607855E1,-1.790583494E0,2.088711452E1
1.438586163E1,-3.513351419E-1,2.001892044E1,-2.199702502E0,2.014247510E1
1.439587662E1,-1.967336052E0,1.855570618E1,-2.376701374E0,1.881045859E1
1.440589163E1,-2.297604918E0,1.531996696E1,-1.938374208E0,1.561210014E1
1.441590563E1,-1.560264885E0,1.206147857E1,-1.085982386E0,1.221036648E1
1.442592062E1,-5.453973224E-1,9.555668923E0,-1.588619057E-1,9.572539053E0
1.443593563E1,1.001537044E-1,7.178181099E0,4.314648005E-1,7.191834017E0
1.444595062E1,6.843282992E-1,4.448311408E0,3.596517098E-1,4.514989363E0
1.445596463E1,1.249209969E0,1.079915242E0,2.154745746E-1,1.665284291E0
1.446597963E1,1.727950751E0,-2.734987174E0,2.258018538E-1,3.242985525E0
1.447599463E1,1.984646149E0,-6.481319293E0,4.553132542E-1,6.793646316E0
1.448600963E1,1.384990795E0,-9.157109256E0,3.389314433E-1,9.267455096E0
1.449602363E1,-1.135368390E-1,-1.046633826E1,6.985189799E-1,1.049023622E1
1.450603863E1,-1.468359811E0,-1.129926829E1,1.610513810E0,1.150753227E1
1.451605363E1,-1.972829219E0,-1.197505673E1,2.162336601E0,1.232760067E1
1.452606763E1,-1.571364947E0,-1.234029136E1,1.986086318E0,1.259748060E1
1.453608263E1,-8.121332306E-1,-1.266953287E1,1.222042417E0,1.275421543E1
1.454609763E1,-2.068835530E-1,-1.253620583E1,6.350626568E-1,1.255398590E1
1.455611263E1,2.000309086E-1,-1.149283451E1,7.078077936E-1,1.151634705E1
1.456612663E1,3.286418787E-1,-1.047891796E1,9.814878917E-1,1.052991195E1
1.457614163E1,3.489355177E-1,-9.757755128E0,1.104525003E0,9.826266667E0
1.458615663E1,3.572502583E-1,-9.335576802E0,9.157055461E-1,9.387179482E0
1.459617163E1,3.058125946E-1,-9.291954235E0,7.829234648E-1,9.329893032E0
1.460618563E1,2.901244967E-1,-9.397629209E0,7.324679140E-1,9.430594691E0
1.461620063E1,3.521435925E-1,-9.313781891E0,6.583111131E-1,9.343656230E0
1.462621563E1,2.548833463E-1,-9.147284764E0,6.955449399E-1,9.177230892E0
1.463622963E1,1.265808168E-1,-8.919662599E0,9.079497993E-1,8.966648004E0
1.464624463E1,8.686798990E-2,-8.683451459E0,1.129138419E0,8.756987430E0
1.465625963E1,-2.763101757E-2,-8.602341222E0,1.364323665E0,8.709903389E0
1.466627463E1,-1.805003312E-1,-8.575672656E0,1.464460888E0,8.701688777E0
1.467628863E1,-1.615533060E-1,-8.568313935E0,1.122851420E0,8.643083852E0
1.468630362E1,-6.128085743E-2,-8.503455450E0,2.396775158E-1,8.507053264E0
1.469631863E1,2.388795170E-1,-8.076288280E0,-2.560892614E-1,8.083877629E0
1.470633263E1,7.407814121E-1,-7.464036854E0,6.092986552E-1,7.525413484E0
1.471634762E1,1.437106151E0,-6.543863450E0,1.597819505E0,6.887702818E0
1.472636263E1,2.364088345E0,-4.889775020E0,1.961395866E0,5.774589785E0
1.473637762E1,2.924062155E0,-2.545139192E0,2.405252159E0,4.562138856E0
1.474639163E1,3.535522453E0,1.376286630E0,3.217657285E0,4.974676100E0
1.475640663E1,3.827673613E0,7.987764943E0,1.076884046E0,8.922732391E0
1.476642163E1,-2.344420651E-1,1.972765192E1,-1.510712364E0,1.978680028E1
1.477643563E1,-6.793720822E0,3.525417295E1,-4.937975957E0,3.624079137E1
1.478645063E1,-6.549658626E0,2.954240220E1,-2.834058888E0,3.039216092E1
1.479646563E1,-2.727346910E0,1.566496321E1,-3.800417694E0,1.634847602E1
1.480648063E1,-7.046386027E-1,1.402147345E1,-5.723148261E0,1.516089243E1
1.481649463E1,-1.170317655E0,1.555223474E1,-6.225676686E0,1.679287644E1
1.482650963E1,-2.528131980E0,1.774150011E1,-4.780173640E0,1.854730001E1
1.483652417E1,-3.442015534E0,1.700660334E1,-3.955698692E0,1.779661710E1
1.484653917E1,-2.539817348E0,1.404381449E1,-4.036962125E0,1.483160344E1
1.485655317E1,-1.220180883E0,1.243791413E1,-3.085755794E0,1.287293432E1
1.486656817E1,5.709718376E-2,1.163570187E1,-1.532329520E0,1.173630486E1
1.487658317E1,8.623260221E-1,1.025293126E1,-4.048810192E-1,1.029709349E1
1.488659717E1,1.336830496E0,8.062630938E0,1.359781694E-1,8.173837745E0
1.489661217E1,1.502283602E0,5.317523403E0,6.687530708E-1,5.565980761E0
1.490662717E1,1.387270625E0,2.221882891E0,1.353217756E0,2.948301488E0
1.491664217E1,1.217828548E0,-7.519987106E-1,1.810722474E0,2.308099718E0
1.492665617E1,8.931529085E-1,-3.368169293E0,1.895258156E0,3.966647197E0
1.493667117E1,5.815638495E-1,-5.530847372E0,1.874812928E0,5.868851052E0
1.494668617E1,2.447519305E-1,-7.208822263E0,1.705476247E0,7.411860168E0
1.495670017E1,-4.969858485E-1,-8.356226068E0,1.384518925E0,8.484715769E0
1.496671517E1,-1.307600850E0,-9.524069985E0,1.385357416E0,9.712720743E0
1.497673017E1,-1.366163346E0,-1.107833007E1,1.492829239E0,1.126163126E1
1.498674517E1,-7.408545023E-1,-1.251641768E1,1.541089818E0,1.263267726E1
1.499675917E1,1.697698134E-1,-1.308010681E1,1.298468961E0,1.314549495E1
1.500677417E1,9.271236965E-1,-1.252252802E1,1.018791885E0,1.259806347E1
1.501678917E1,1.156243626E0,-1.150232922E1,8.160011637E-1,1.158906099E1
1.502680417E1,1.140241258E0,-1.071919643E1,4.680368686E-1,1.078982765E1
1.503681817E1,9.821790326E-1,-1.023180176E1,5.373116098E-2,1.027897515E1
1.504683317E1,6.514163688E-1,-9.940802214E0,-1.304677534E-1,9.962977154E0
1.505684817E1,3.283729067E-1,-9.780334736E0,1.517703295E-2,9.785857482E0
1.506686217E1,6.032339414E-2,-9.637984856E0,3.395152147E-1,9.644151677E0
1.507687717E1,-2.311951062E-1,-9.491868784E0,5.154987911E-1,9.508667793E0
1.508689217E1,-4.720138523E-1,-9.351214011E0,5.357803702E-1,9.378435966E0
1.509690717E1,-5.267367741E-1,-9.194995705E0,6.857064879E-1,9.235561219E0
1.510692117E1,-5.815596834E-1,-9.108945156E0,1.032681507E0,9.185723957E0
1.511693617E1,-6.206339943E-1,-9.081266191E0,1.290273503E0,9.193442658E0
1.512695117E1,-6.101940832E-1,-9.036136211E0,1.356983217E0,9.157810759E0
1.513696517E1,-6.351125774E-1,-8.903219644E0,1.089254415E0,8.992061120E0
1.514698017E1,-5.362788454E-1,-8.323583402E0,8.197363651E-1,8.381026391E0
1.515699517E1,2.619203607E-2,-7.302629728E0,2.402457920E-1,7.306627472E0
1.516701017E1,1.114127593E0,-6.099966227E0,3.224786941E-1,6.209256056E0
1.517702417E1,3.177113568E0,-4.168281233E0,-4.212545387E-1,5.257953447E0
1.518703917E1,4.654590066E0,-1.372829171E0,-7.300248011E-1,4.907423441E0
1.519705417E1,4.853972518E0,2.749090658E0,1.228606428E0,5.712094398E0
1.520706917E1,4.419471771E0,9.489563227E0,7.854237342E-1,1.049763933E1
1.521708317E1,-2.510713710E0,2.304377631E1,-2.283771576E0,2.329237907E1
1.522709817E1,-1.165805695E1,3.922420082E1,-5.896267945E0,4.134264382E1
1.523711317E1,-8.982792063E0,3.428920928E1,-4.836070683E0,3.577468387E1
1.524712717E1,-2.269460515E0,2.170480135E1,-4.602555109E0,2.230319184E1
1.525714217E1,-3.209799796E-2,1.938031795E1,-4.809282249E0,1.996814839E1
1.526715717E1,-8.857547189E-1,1.852382482E1,-4.753655348E0,1.914455240E1
1.527717217E1,-2.810636989E0,1.738226238E1,-4.776155434E0,1.824429737E1
1.528718617E1,-2.868019516E0,1.497701841E1,-3.177725187E0,1.557673117E1
1.529720117E1,-1.962352178E0,1.170582636E1,-1.699779743E0,1.199026472E1
1.530721617E1,-1.236420355E0,9.269053030E0,-4.888739332E-1,9.363924236E0
1.531723017E1,-3.574692731E-1,7.469133287E0,4.885897585E-1,7.493627712E0
1.532724517E1,3.783633846E-1,5.220405244E0,8.068175268E-1,5.295917700E0
1.533726017E1,1.000070635E0,2.448237380E0,1.005070809E0,2.829165049E0
1.534727517E1,1.530971504E0,-5.472122616E-1,1.126795878E0,1.978126375E0
1.535728917E1,1.667263961E0,-3.598171275E0,1.299810312E0,4.173261613E0
1.536730417E1,1.441773399E0,-6.255889249E0,1.459094313E0,6.583602133E0
1.537731917E1,5.288669148E-1,-7.958853970E0,1.373612698E0,8.093816688E0
1.538733317E1,-6.898998186E-1,-8.944674064E0,1.506324613E0,9.096821957E0
1.539734817E1,-1.222438492E0,-1.015851276E1,2.132453821E0,1.045165522E1
1.540736317E1,-7.941235140E-1,-1.187875776E1,2.538392090E0,1.217287774E1
1.541737817E1,6.166502863E-2,-1.369475209E1,1.997197198E0,1.383975556E1
1.542739217E1,8.788952771E-1,-1.444231627E1,1.315756838E0,1.452873608E1
1.543740717E1,1.452164193E0,-1.355011419E1,9.316707838E-1,1.365951631E1
1.544742217E1,1.439076955E0,-1.178777158E1,7.383571565E-1,1.189822140E1
1.545743617E1,1.119132225E0,-1.012389725E1,5.353219485E-1,1.019962362E1
1.546745117E1,7.127048367E-1,-9.055523239E0,3.752543835E-1,9.091274123E0
1.547746617E1,1.853505966E-1,-8.561555139E0,3.035114229E-1,8.568938115E0
1.548748117E1,-2.659845775E-1,-8.455632827E0,3.411874088E-1,8.466692575E0
1.549749517E1,-4.392861092E-1,-8.565741745E0,3.725904651E-1,8.585087512E0
1.550751017E1,-4.567450181E-1,-8.673500667E0,2.484879907E-1,8.689072224E0
1.551752517E1,-5.136632770E-1,-8.820762209E0,2.577009002E-1,8.839462973E0
1.552753917E1,-6.101701096E-1,-8.952811634E0,2.858516987E-1,8.978132039E0
1.553755417E1,-6.673263502E-1,-8.951888359E0,2.173690724E-1,8.979358494E0
1.554756917E1,-6.795104858E-1,-8.901060852E0,9.614342809E-2,8.927477939E0
1.555758417E1,-5.679994056E-1,-8.779800124E0,1.284773612E-1,8.799091997E0
1.556759817E1,-5.126011303E-1,-8.523614895E0,1.236007468E-1,8.539909130E0
1.557761317E1,-2.124044940E-1,-7.932633301E0,2.432558656E-1,7.939204001E0
1.558762817E1,3.312155306E-1,-7.284810339E0,1.077936544E0,7.371574634E0
1.559764217E1,7.419876927E-1,-6.669289734E0,3.147344517E0,7.411865406E0
1.560765717E1,1.828295403E0,-5.152153620E0,3.898095431E0,6.714350229E0
1.561767217E1,2.758965144E0,-2.760092779E0,3.679457513E0,5.363618965E0
1.562768717E1,3.539592699E0,6.487228489E-1,3.799259945E0,5.232966075E0
1.563770117E1,4.069250742E0,7.101664435E0,2.343386278E0,8.513747623E0
1.564771617E1,-2.185765225E-1,1.915244728E1,-2.632011859E0,1.933368819E1
1.565773117E1,-6.743494409E0,3.373588727E1,-8.993964922E0,3.555947429E1
1.566774517E1,-6.030311270E0,3.184244891E1,-6.044346342E0,3.296726148E1
1.567776017E1,-9.859174499E-1,1.980564676E1,-1.793498915E0,1.991111034E1
1.568777517E1,1.002173879E0,1.734389646E1,-4.609685204E0,1.797398939E1
1.569779017E1,3.004398805E-1,1.733746920E1,-4.607211832E0,1.794169734E1
1.570780417E1,-1.065964955E0,1.791725338E1,-2.648574682E0,1.814329622E1
1.571781917E1,-2.876276954E0,1.814668058E1,-1.266469488E0,1.841681107E1
1.572783417E1,-2.915604157E0,1.629551876E1,-1.699163446E0,1.664126906E1
1.573784817E1,-1.911405095E0,1.327416771E1,-1.078874438E0,1.345440329E1
1.574786317E1,-4.163673627E-1,1.117080613E1,6.036338361E-1,1.119484904E1
1.575787817E1,5.975018245E-1,9.305811551E0,1.586126243E0,9.458907628E0
1.576789317E1,9.761373970E-1,7.037184264E0,1.865077021E0,7.345292294E0
1.577790717E1,1.227360679E0,4.417712928E0,1.888681061E0,4.958802063E0
1.578792217E1,1.389475902E0,1.553396453E0,1.970312870E0,2.868068449E0
1.579793717E1,1.373954176E0,-1.565244082E0,2.004682803E0,2.890759806E0
1.580795117E1,1.188874890E0,-4.587109104E0,1.739642551E0,5.047905471E0
1.581796617E1,6.484635249E-1,-7.144030436E0,7.914253163E-1,7.216926620E0
1.582798117E1,-2.810537294E-1,-9.280321784E0,1.398080957E-1,9.285629215E0
1.583799567E1,-8.863861451E-1,-1.128939702E1,3.029279073E-1,1.132819185E1
1.584800967E1,-7.747306386E-1,-1.335655966E1,4.079064417E-1,1.338522623E1
1.585802467E1,-2.923929423E-1,-1.488156846E1,2.060009158E-1,1.488586611E1
1.586803967E1,1.038053271E-1,-1.524598565E1,5.793608379E-1,1.525734292E1
1.587805367E1,4.503765231E-1,-1.411396938E1,1.186588336E0,1.417091961E1
1.588806867E1,6.690585878E-1,-1.184450360E1,1.275158451E0,1.193171966E1
1.589808367E1,6.440433222E-1,-9.841087307E0,8.815262318E-1,9.901458462E0
1.590809867E1,4.545575747E-1,-8.584282097E0,5.056683791E-1,8.611168458E0
1.591811267E1,1.301905954E-1,-8.047863210E0,2.669569878E-1,8.053342032E0
1.592812767E1,-1.903704312E-1,-8.100198714E0,8.715625763E-2,8.102904191E0
1.593814267E1,-4.559527203E-1,-8.433515149E0,4.963352362E-2,8.445977394E0
1.594815667E1,-5.414738041E-1,-8.789043403E0,1.809572911E-1,8.807566256E0
1.595817167E1,-5.137732047E-1,-9.183303612E0,4.129327083E-1,9.206928998E0
1.596818667E1,-3.994367498E-1,-9.536743240E0,7.124247551E-1,9.571654527E0
1.597820167E1,-3.165287867E-1,-9.799629378E0,9.008126879E-1,9.846034223E0
1.598821567E1,-2.825210881E-1,-9.839521422E0,7.754249954E-1,9.874071294E0
1.599823067E1,-3.386388633E-1,-9.637062750E0,5.105777013E-1,9.656518229E0
1.600824567E1,-4.416668031E-1,-9.174382516E0,1.570141856E-1,9.186349523E0
1.601825967E1,-3.651603351E-1,-8.493413442E0,-2.672104463E-3,8.501259972E0
1.602827467E1,-1.330489885E-1,-7.714184248E0,-3.789342921E-2,7.715424587E0
1.603828967E1,3.690493548E-1,-6.928768700E0,2.004530776E-1,6.941485040E0
1.604830467E1,1.336208645E0,-5.652684635E0,9.532318068E-1,5.886165815E0
1.605831867E1,2.980127305E0,-3.722953781E0,1.161290942E0,4.908170765E0
1.606833367E1,4.012782427E0,-1.258169950E0,1.567830305E0,4.488151768E0
1.607834867E1,4.335004647E0,3.037691681E0,1.808039771E0,5.593643165E0
1.608836267E1,2.701920877E0,1.011022412E1,-5.963575244E-1,1.048201557E1
1.609837767E1,-5.695591503E0,2.261761253E1,-4.430500789E0,2.374079814E1
1.610839267E1,-1.089937838E1,3.581678970E1,-8.037657480E0,3.829155012E1
1.611840767E1,-5.512333333E0,3.272265835E1,-6.931827378E0,3.389997668E1
1.612842167E1,-7.018544510E-1,2.172631443E1,-4.534533280E0,2.220556980E1
1.613843667E1,1.128903653E-1,1.841047070E1,-4.435259253E0,1.893752096E1
1.614845167E1,-2.618513270E-1,1.817266210E1,-4.431740398E0,1.870707184E1
1.615846567E1,-2.096486720E0,1.781535044E1,-3.681911005E0,1.831224827E1
1.616848067E1,-2.983794971E0,1.630033921E1,-3.449526283E0,1.692640902E1
1.617849567E1,-2.671501615E0,1.366612880E1,-2.789915918E0,1.420153611E1
1.618851067E1,-1.816162431E0,1.160078698E1,-7.435658562E-1,1.176561068E1
1.619852467E1,-9.539206088E-1,1.002912090E1,7.696608102E-1,1.010374229E1
1.620853967E1,-3.423814467E-1,8.034237444E0,1.358483613E0,8.155468968E0
1.621855467E1,2.144000756E-1,5.350393526E0,1.705757936E0,5.619812133E0
1.622856867E1,7.454465400E-1,1.952063125E0,2.371029575E0,3.160383241E0
1.623858367E1,1.008042437E0,-1.918050456E0,3.130648377E0,3.807364754E0
1.624859867E1,1.425257938E0,-5.246321858E0,3.317716008E0,6.368869032E0
1.625861367E1,1.295765793E0,-7.718296595E0,2.841253302E0,8.326093420E0
1.626862767E1,6.209906014E-1,-9.264585173E0,2.487685035E0,9.612842690E0
1.627864267E1,4.796284254E-1,-1.048862785E1,2.732599171E0,1.084935278E1
1.628865767E1,1.172004796E0,-1.193620899E1,2.754052606E0,1.230575013E1
1.629867167E1,2.327956061E0,-1.324592683E1,1.658001387E0,1.355075369E1
1.630868667E1,3.091060680E0,-1.399233560E1,5.967446101E-1,1.434211337E1
1.631870167E1,3.117300938E0,-1.363986778E1,5.085977610E-1,1.400079390E1
1.632871667E1,2.526922484E0,-1.214204268E1,5.474654460E-1,1.241427630E1
1.633873067E1,1.701254118E0,-1.053374380E1,3.601183907E-1,1.067631534E1
1.634874567E1,1.154556704E0,-9.429990039E0,6.232827830E-1,9.520829520E0
1.635876067E1,6.740456781E-1,-9.003515764E0,8.111573303E-1,9.065076388E0
1.636877467E1,1.341883002E-1,-9.125410915E0,9.345791157E-1,9.174124971E0
1.637878967E1,-4.861038879E-1,-9.364411177E0,1.253338981E0,9.460409731E0
1.638880467E1,-8.236215475E-1,-9.398132654E0,1.620075177E0,9.572245997E0
1.639881967E1,-9.332246813E-1,-9.333540217E0,2.043502468E0,9.600092897E0
1.640883367E1,-8.174331468E-1,-9.163216088E0,2.346916827E0,9.494247975E0
1.641884867E1,-5.891308409E-1,-8.914253340E0,2.376053795E0,9.244274952E0
1.642886367E1,-4.091510215E-1,-8.928370857E0,2.464290326E0,9.271242502E0
1.643887767E1,-1.289594276E-1,-9.095632800E0,2.207094844E0,9.360471901E0
1.644889267E1,1.229825134E-1,-9.158094512E0,1.755081832E0,9.325563362E0
1.645890767E1,2.879493873E-1,-8.867929358E0,1.631172169E0,9.021297501E0
1.646892267E1,3.722343697E-1,-8.343870901E0,1.656669391E0,8.514886583E0
1.647893667E1,5.756397064E-1,-7.649526907E0,1.764738801E0,7.871526282E0
1.648895167E1,1.675237809E0,-6.228762846E0,1.762287794E0,6.686521261E0
1.649896667E1,3.152683901E0,-3.621539088E0,7.376262546E-1,4.857885717E0
1.650898067E1,3.954885052E0,1.181693047E-1,5.291287970E-1,3.991873876E0
1.651899567E1,3.964331228E0,6.063342192E0,7.825704391E-1,7.286457103E0
1.652901067E1,1.985495165E0,1.635632045E1,-2.955102392E-1,1.647903929E1
1.653902567E1,-4.547731908E0,3.069283954E1,-7.619882400E-1,3.103728227E1
1.654903967E1,-9.502047617E0,3.571036335E1,-5.952714626E0,3.742931700E1
1.655905467E1,-6.286423409E0,2.529885560E1,-9.150158086E0,2.762746110E1
1.656906967E1,-1.273831425E0,1.836331290E1,-5.618265585E0,1.924574798E1
