Time (s),Linear Acceleration x (m/s^2),Linear Acceleration y (m/s^2),Linear Acceleration z (m/s^2),Absolute acceleration (m/s^2)
0.01331579167,-0.1524208322,-0.1455898225,-1.939067103,1.950489615
0.02335679167,-0.5087255958,-0.2104699427,-1.499390985,1.597270376
0.03339679167,-0.7168075356,-0.715046939,-1.499620196,1.809410373
0.04343779167,-0.7227930379,-0.3513390157,-1.801787928,1.972893463
0.05347879167,-0.4500876707,0.1702650726,-1.311053338,1.396577947
0.06351879166,0.2257767838,-0.02771667928,-1.384615989,1.403176684
0.07355979166,0.8119850037,-0.3726664424,-1.320198383,1.59409024
0.08360079167,0.986632272,-0.2254388148,-0.4236471462,1.097152133
0.09364079167,0.8803901178,-0.1622643274,0.5540833247,1.052817554
0.1036817917,0.5229220507,-0.1739754233,1.203089764,1.323306426
0.1137227917,0.2855724576,-0.5713440129,1.027585001,1.209924189
0.1237627917,-0.4204683074,-0.2339973843,1.078087403,1.180601889
0.1338037917,-1.427789052,0.6194929102,1.94629777,2.492073043
0.1438447917,-1.23027727,1.129815965,1.937985953,2.55848702
0.1538847917,-1.104927511,0.0926082015,2.184658347,2.4499333
0.1639257917,-0.5229734331,-0.8191472581,1.924145594,2.155652966
0.1739657917,1.255634744,-0.4874221426,-0.9912878251,1.672378697
0.1840067917,3.402282242,-0.487270115,-3.678990905,5.034672849
0.1940477917,4.58546019,-0.1575125876,-3.391478049,5.705556829
0.2040872917,4.187045825,0.3492863506,-1.003977453,4.31987551
0.2141282917,3.253836055,0.4088335177,1.183427916,3.48641586
0.2241692917,2.962512568,0.3948042932,0.7630423468,3.084572056
0.2342092917,0.9472797067,0.2217457134,1.173674176,1.524474032
0.2442502917,-0.8719251037,0.8133001886,2.676240783,2.929842199
0.2542912917,-2.979346117,0.9117639381,2.151858975,3.7865966
0.2643312917,-3.978337649,-1.309959763,-1.86129855,4.583404556
0.2743722917,-3.023063994,-1.67561627,-4.061405826,5.333068824
0.2844132917,-0.8018348951,0.1951650019,-2.583096977,2.711718748
0.2944532917,2.436804027,1.233300865,-1.987739326,3.377891727
0.3044942917,4.935773896,1.118669272,-0.7398844492,5.114754529
0.3145342917,5.796555376,-2.02654832,-0.8008416724,6.192600399
0.3245752917,6.469179304,-4.025631976,-3.736038095,8.486104779
0.3346162917,3.86006631,-2.581975773,-0.009982951283,4.644008018
0.3446562917,-1.818389051,-0.07875351638,4.443606153,4.801913837
0.3546972917,-3.481846182,0.9038774329,4.37228591,5.661901741
0.3647382917,-2.434677979,0.2526521949,1.160428478,2.708889855
0.3747782917,-3.194490324,0.4246334253,-0.4539556038,3.254405885
0.3848192917,-2.534976731,0.3618128407,-1.681163378,3.063221484
0.3948602917,-2.054236202,-0.02464243256,-2.790853227,3.465451681
0.4049002917,-2.129196775,-0.3397141662,-3.470412537,4.085663691
0.4149412917,-2.820444523,-1.028449146,-3.262444033,4.433526365
0.4249822917,-2.233388603,-1.776329151,-2.281782353,3.653751581
0.4350222917,-1.469166873,-2.186074835,-0.4467313689,2.67150583
0.4450632917,2.170217478,-2.910985442,3.164416047,4.816348105
0.4551032917,13.65535589,-2.418159741,28.78771377,31.95385274
0.4651442917,6.533236721,-2.355649351,6.068242158,9.222571702
0.4751852917,-1.482147692,1.081343571,-16.15955814,16.26337557
0.4852252917,5.560395691,-2.048276573,-15.95528098,17.02011834
0.4952662917,6.697117803,-2.545982068,-9.189555455,11.65252509
0.5053072917,3.951394264,-3.017334015,-4.999334884,7.0506149
0.5153472917,3.830271238,-4.235661623,-1.169822615,5.829261711
0.5253882917,2.215763341,-4.340903319,0.1575011855,4.876254242
0.5354292917,1.925949606,-4.108176242,-0.7368398041,4.596664749
0.5454692917,0.07019692026,-3.297616497,-1.714762064,3.717473753
0.5555102917,-0.7628806713,-2.884104622,-2.796002285,4.088725372
0.5655502917,-1.278276917,-2.451184376,-4.051252136,4.904583631
0.5755912917,-1.086948712,-2.626870987,-5.881372163,6.532415113
0.5856322917,-0.007080685794,-3.78975705,-7.972905999,8.82777088
0.5956722917,-1.687482902,-4.904345697,-8.001734526,9.53561538
0.6057132917,-1.765107467,-5.302770293,-10.43746237,11.83957761
0.6157542917,-1.742338117,-5.37990033,-11.67100853,12.96886694
0.6257942917,-3.076853408,-7.215413244,-12.15256767,14.46423576
0.6358352917,-4.101053164,-8.647382909,-12.01668305,15.36217888
0.6458762917,-5.325407789,-10.6293142,-11.19434468,16.32959403
0.6559162917,-6.724922483,-12.01228478,-10.54391444,17.3405219
0.6659572917,-6.709202244,-13.1153164,-8.990078278,17.25822779
0.6759982917,-5.910692441,-13.59346428,-7.117925541,16.44333969
0.6860382917,-5.130396715,-13.73623925,-4.288722181,15.27738123
0.6960792917,-4.217463918,-13.67010022,-1.518292694,14.38623838
0.7061192917,-2.723775723,-14.20474857,0.5954354185,14.47578597
0.7161602917,0.1897515035,-15.26297298,2.626733578,15.48851443
0.7262012917,2.389733648,-14.35999215,5.388881654,15.52289428
0.7362412917,4.765518764,-12.98936738,8.610471776,16.29644311
0.7462822917,7.59119216,-9.603444768,14.57027089,19.0301115
0.7563232917,8.252080725,-6.400743492,18.69241525,21.41197659
0.7663632917,8.048565461,-4.284812733,18.12813789,20.29207751
0.7764042917,8.988397788,-2.318441471,16.87629814,19.26073478
0.7864452917,11.52632269,-1.606319602,15.47678929,19.36407457
0.7964852917,13.93360851,-0.1979691803,15.19512189,20.61738022
0.8065262917,13.75472347,1.750487382,15.30724693,20.65353317
0.8165672917,13.30431829,2.44527518,15.45367992,20.53778175
0.8266072917,12.40532175,1.901222169,14.80767252,19.41066251
0.8366482917,11.23414083,0.6359016591,14.2524104,18.15878556
0.8466882917,11.39072459,-0.9852640235,16.27284794,19.88780862
0.8567292917,12.18537055,-2.184233254,18.50782918,22.26642924
0.8667702917,11.92918649,-2.894168265,19.54307988,23.07842437
0.8768102917,11.98927598,-3.221063288,18.79807561,22.5274418
0.8868512917,11.43945762,-3.326297967,16.42671157,20.29192701
0.8968922917,10.7575027,-3.499042844,12.0325945,16.51515957
0.9069322917,12.33760865,-2.432429432,6.09008911,13.97220404
0.9169732917,15.33838803,0.6874097818,0.05308570147,15.35387566
0.9270142917,16.44169915,4.609547794,-8.245616044,18.96226742
0.9370542917,15.48509467,5.876585047,-12.24089805,20.59519346
0.9470952917,15.20421314,3.592272604,-6.154367552,16.7913299
0.9571352917,15.25268188,3.198705289,-6.716667384,16.97025754
0.9671762917,10.4639374,2.756524224,-3.181691938,11.27898822
0.9772172917,7.073974945,-0.1042131704,-2.987304178,7.679581249
0.9872572917,4.533182573,-0.9926671833,-5.00000556,6.821670468
0.9972982917,2.921874419,-1.690025418,-2.448495827,4.169972164
1.007339292,4.244418121,0.06833933294,0.6150955117,4.289300402
1.017379292,4.697991317,4.814354124,3.443449271,7.556882355
1.027420292,1.597807226,7.730614339,0.6495777118,7.920690449
1.037461292,4.096052917,7.778795396,0.9497521287,8.842473433
1.047501292,5.616043058,7.691032782,5.318865339,10.90789867
1.057542292,-2.629264253,10.55234145,-2.778575828,11.22432288
1.067583292,-7.70177821,7.848795923,-2.059045537,11.18752223
1.077623292,-6.25034258,2.972631467,-1.608964882,7.105778508
1.087664292,-10.07355857,3.603192279,-7.095956383,12.83791937
1.097704292,-14.03316086,4.037579007,-10.78937354,18.15605214
1.107745292,-8.819067101,3.987444395,-7.963758615,12.53383854
1.117786292,-5.158307814,4.646630836,-7.165647007,9.977264889
1.127826292,-4.422952033,4.930027837,-6.134592853,9.027785367
1.137867292,-2.02869264,4.080329754,-4.016095167,6.074018861
1.147908292,-0.7980472881,1.402007947,-2.214076858,2.739460182
1.157948292,0.09179046839,-2.015435248,-0.4623510361,2.069824439
1.167989292,1.518354675,-3.526604279,1.966169533,4.313717804
1.178030292,3.622769634,-3.305100056,3.584737297,6.074412539
1.188070292,6.611585317,-2.572860256,3.701666992,8.002187753
1.198111292,7.480120205,-1.80705627,3.441544248,8.429820725
1.208151,6.966628252,-1.493023952,3.121785167,7.778725625
1.218192,6.536159159,-2.225379526,3.599555896,7.786558497
1.228233,5.051706641,-3.005457151,3.225721765,6.705057313
1.238273,2.736866469,-3.272943878,1.62663049,4.566018665
1.248314,-0.2246342379,-2.851512827,1.238544356,3.116982204
1.258355,-1.143790226,-1.527398563,-0.07191256642,1.90954808
1.268395,-0.325212779,-0.2618681377,-1.721555943,1.771466381
1.278436,-1.620668962,1.04343271,-2.038711259,2.805648464
1.288477,-2.267964359,1.547546899,-1.718646954,3.239183707
1.298517,-4.033689731,2.168121836,-0.7429518986,4.63932998
1.308558,-4.390408477,3.362441946,-1.835567293,5.826749499
1.318598,-3.272640992,5.073385193,-1.501949142,6.221355769
1.328639,-2.91896923,6.897554508,-2.241795584,7.818074379
1.33868,-2.541294647,6.778273648,-2.00215359,7.510778331
1.34872,-3.239236434,6.378083192,1.139217703,7.243646517
1.358761,-3.163636613,6.316481021,1.253842134,7.174862313
1.368802,-4.34157838,6.77138095,-3.912832169,8.944895661
1.378842,-3.741450278,5.254692147,-3.805160955,7.489291665
1.388883,-1.822688655,3.74354709,-6.445226769,7.673153645
1.398924,-1.206134555,3.268753179,-9.080621828,9.726109227
1.408964,-0.009159078598,0.683982144,-4.591733083,4.642405429
1.419005,-1.664426161,-1.810212012,-0.9308401868,2.629381187
1.429045,-0.743098956,0.5094866109,-1.748054355,1.966587576
1.439086,1.856918109,4.623249575,-3.187015536,5.914359604
1.449127,0.2425550768,-0.02516641617,1.778566296,1.795205945
1.459167,-1.560117681,-5.580437608,4.174598273,7.141604989
1.469208,-1.977852854,1.212880341,-1.020606349,2.534683009
1.479249,1.207512597,7.773781993,2.630016789,8.294984115
1.489289,1.698234762,-5.648215608,2.41951571,6.374982128
1.49933,0.007824013084,-5.818036292,1.760211155,6.078482609
1.509371,1.251540816,-2.124808586,-1.061190996,2.684640064
1.519411,0.814217032,-1.022321337,0.5631770606,1.42311584
1.529452,0.7554881828,-1.617694191,0.05623983577,1.786297794
1.539493,-0.2057054852,-2.784676228,-1.04394858,2.98103423
1.549533,2.234563455,-1.872119408,1.793500085,3.422681327
1.559574,3.120155548,0.003524116874,2.652771814,4.095434209
1.569614,3.654260691,-1.302385426,3.274749498,5.076791632
1.579655,5.742158729,0.3585863471,3.482448446,6.725207671
1.589696,5.793420099,-0.0885356158,2.936739503,6.495844357
1.599736,7.380662575,6.418621354,5.544057401,11.24319584
1.609777,10.80057096,-2.087019201,-1.975695232,11.1763748
1.619818,5.755386885,-4.742523419,0.6016222843,7.481841748
1.629858,2.545081889,-4.303379397,0.7948190403,5.062435517
1.639899,-0.2599341529,-4.655144382,0.3711426945,4.677144629
1.649939,-0.9465955094,-4.789178352,-1.234434932,5.035484282
1.65998,-0.8613033441,-5.890524809,-1.87412091,6.241190204
1.670021,-1.305976201,-8.192677692,-2.161195225,8.572998682
1.680061,-2.070018714,-7.190664319,-1.436738069,7.619373144
1.690102,-1.983543364,-4.987460359,-0.9146027613,5.444786802
1.700143,-1.276519682,-2.989509455,-1.072365317,3.422957297
1.710183,-2.163061948,0.4047466063,-0.6405239562,2.291926645
1.720224,-1.221637132,1.829145296,-0.2984045378,2.219733106
1.730265,-0.8585346875,0.5734773695,-0.09685094118,1.036985153
1.740305,-0.2081304352,1.30813967,0.1244862711,1.330430196
1.750346,1.447878769,3.621393492,0.5700941706,3.941554404
1.760387,1.057315534,5.836464377,1.417388609,6.09846071
1.770427,2.599346682,7.025986846,2.458272371,7.884427524
1.780468,3.330398619,7.786352338,2.522758974,8.836467084
1.790508,2.797772529,8.290494593,1.620714862,8.898682397
1.800549,2.332371732,8.553605264,0.4421759494,8.876916159
1.81059,1.568340182,7.916161695,0.756248467,8.105382079
1.82063,-0.2233042156,5.030256715,2.4574561,5.60289549
1.830671,0.4323492649,4.689740603,1.202238994,4.86065545
1.840712,0.3199994016,5.712054339,0.3795815058,5.733589322
1.850752,-0.3450673287,6.478472283,0.8281763823,6.540302035
1.860793,-0.9095493782,6.739469186,2.055266189,7.104353882
1.870833,-1.72903921,5.852126729,4.515488899,7.591218864
1.880874,-2.532592821,3.952771575,8.047389586,9.31659319
1.890915,-3.447067528,2.842147926,8.574141855,9.668298089
1.900955,-3.528268982,3.095220682,5.067488276,6.907134753
1.910996,-2.720968475,3.04152804,1.472241193,4.338439395
1.921037,-1.934861493,2.169349751,-3.114779034,4.260471309
1.931077,-0.987667083,2.798885547,-2.167050042,3.674962919
1.941118,-0.7522229514,-8.470555506,-4.873571216,9.801420629
1.951159,1.350590018,-28.74657977,-4.725441363,29.16367155
1.961199,1.10028855,-30.8781916,4.137316718,31.17355836
1.97124,3.949022341,-27.3781863,4.654077265,28.05031725
1.98128,4.693426395,-11.2482256,-0.9313831007,12.22367805
1.991321,1.466183916,-1.214754374,-4.244376898,4.651887651
2.001362,0.06920581721,2.835310192,-4.900595877,5.662120917
2.011402,-0.4045033622,4.115282655,-3.962886089,5.727446242
2.021443,-0.7100493237,4.165593853,-2.124808002,4.729815137
2.031484,-0.03025641739,3.986092519,-0.1733027011,3.989972787
2.041524,0.8181435104,3.590942363,1.272423123,3.896573682
2.051565,0.6344940881,2.932778599,2.176776885,3.707037991
2.061606,0.6523033183,2.385340635,2.13064937,3.264202246
2.071646,1.416626863,1.854699383,1.64694898,2.856428261
2.081687,2.021718081,1.472817729,0.9015014899,2.65880443
2.091727,1.184650861,2.176804367,-0.1935673964,2.485828484
2.101768,0.3727436256,0.7720441353,-0.8191083741,1.185718553
2.111809,0.444179644,0.112370621,-0.8458511996,0.9619703553
2.121849,-0.5030133046,1.228176073,-0.6786132306,1.490622275
2.13189,-2.158206274,1.815347037,-0.5906926688,2.881363742
2.141931,-2.867775688,-0.3345238853,-0.7945073106,2.994542618
2.151971,-3.004097673,-1.46935033,-0.601658537,3.397879665
2.162012,-1.874027793,-0.4893283349,-0.1462517639,1.942372767
2.172053,-0.4383409068,1.953580477,0.6256234235,2.097623441
2.182093,-0.5444153921,5.235284069,1.856168203,5.581213829
2.192134,-0.981180182,7.684352923,2.757741029,8.222963576
2.202174125,-0.7887747735,9.183520544,3.663810364,9.918806461
2.212215125,0.6427180508,9.401538073,3.524181778,10.0609076
2.222256125,3.157976216,6.231743757,2.529977946,7.430224252
2.232296125,4.974820433,-0.524249661,2.192470812,5.461740044
2.242337125,5.13323086,-6.112175798,3.070078824,8.55184986
2.252378125,6.510341948,-12.0757563,3.494476753,14.15697038
2.262418125,7.368067088,-19.51911799,2.234951857,20.98283559
2.272459125,8.201518682,-23.86616848,0.4405222106,25.23990821
2.282500125,6.837110671,-23.05729508,-2.066627036,24.13826601
2.292540125,3.094261154,-21.91047599,-4.329174389,22.5473981
2.302581125,2.171935829,-21.63567089,-4.552452657,22.21585887
2.312621125,3.169946636,-20.71182719,-3.876660708,21.30860966
2.322662125,3.974409489,-18.14350905,-3.317651104,18.86768826
2.332703125,3.754869053,-13.39727616,-2.834388086,14.19928892
2.342743125,2.255366533,-8.003914368,-2.781513469,8.768474245
2.352784125,0.6295987992,-3.475958036,-3.283708017,4.82300915
2.362825125,-1.467200747,-0.1879698569,-3.78292107,4.061834872
2.372865125,-3.426820667,2.411049673,-3.276290824,5.318866606
2.382906125,-4.936705357,4.527024871,-1.207295666,6.806069114
2.392947125,-5.832421027,6.8911138,1.480823736,9.148629591
2.402987125,-5.560222029,9.42813004,4.091569272,11.68531746
2.413028125,-5.025731555,11.27726989,5.848137174,13.66146047
2.423068125,-3.892771541,12.89909572,6.265292741,14.85914647
2.433109125,-3.105177613,14.75263736,5.782468264,16.146807
2.443150125,-2.374615672,16.5715167,4.995758142,17.47030523
2.453190125,-0.2283884427,17.06273895,3.314480159,17.38318154
2.463231125,2.426228752,15.23401406,1.407700796,15.49010626
2.473272125,3.357601913,13.50041169,0.3554803061,13.91621258
2.483312125,2.658768134,12.08277179,0.2144746824,12.37369878
2.493353125,1.167459901,10.99684094,0.03426232656,11.05869102
2.503393125,-0.5224073495,10.32966778,-0.02311873038,10.34289517
2.513434125,-2.08566557,9.897032297,0.2386611235,10.11722335
2.523475125,-3.160699557,9.545454422,0.4494567561,10.06517428
2.533515125,-3.937991568,9.184880022,0.4815544617,10.00508337
2.543556125,-4.273643966,8.864865417,0.4706950128,9.852483211
2.553597125,-4.178669104,8.597157665,0.401824168,9.567332861
2.563637125,-3.622796824,8.454182133,0.2485177567,9.201065886
2.573678125,-2.759701016,8.26984749,0.1208291849,8.718998045
2.583718125,-2.132488758,7.937326276,-0.08341873566,8.219222311
2.593759125,-1.755772095,7.7108718,-0.3797772413,7.917355008
2.603800125,-1.537218085,7.641954762,-0.8495290983,7.841186882
2.613840125,-1.47599876,7.731183273,-1.199798366,7.961738708
2.623881125,-1.500820483,7.736884308,-1.23240361,7.976882824
2.633922125,-1.610923992,7.400113338,-1.305907788,7.685190217
2.643962125,-1.527042175,6.420735122,-2.139343595,6.9379023
2.654003125,-1.053915744,4.791785626,-3.522891297,6.040091967
2.664044125,-0.08226169959,2.972712743,-3.356116428,4.484117028
2.674084125,1.158525794,-0.1106644034,-2.055489845,2.362089568
2.684125125,3.445334998,-6.539656379,-0.7235812426,7.427045753
2.694166125,8.994196472,-22.20331625,1.25783549,23.98885101
2.704206125,15.10076888,-48.78607072,4.510907021,51.2685303
2.714247125,13.68433819,-58.88735561,2.745329729,60.51874584
2.724287125,8.003108037,-37.57362774,-2.497076833,38.49756658
2.734328125,6.673213216,-21.0126524,-0.9263000431,22.06629483
2.744369125,5.424771279,-17.09412329,5.237798957,18.68346147
2.754409125,4.257679898,-19.12038349,9.174713468,21.6308176
2.764450125,4.82293696,-20.37516556,9.094963878,22.82819442
2.774491125,6.088682855,-18.84215426,6.718181228,20.91011227
2.784531125,5.476640174,-15.65476567,2.135048815,16.72195291
2.794572125,3.456811913,-11.03439059,-2.37400113,11.80437231
2.804612125,1.134498854,-6.720069294,-6.146413,9.17740768
2.814653125,-2.14049652,-3.431947213,-8.378733755,9.303932844
2.824694125,-5.434493444,-0.6626485777,-8.002597575,9.696101798
2.834734125,-8.061296604,1.828451816,-5.375907267,9.860431934
2.844775125,-8.818734979,4.567574142,-2.649176946,10.27866522
2.854816125,-7.048928981,7.215574043,-0.07013029855,10.08745889
2.864856125,-4.471340666,9.390814864,3.14219312,10.86525052
2.874897125,-1.416893204,11.64875286,5.458068248,12.9418522
2.884938125,-0.4557600546,13.64259024,4.027185581,14.23187301
2.894978125,-0.9108930684,16.42072168,2.034753864,16.57136235
2.905019125,-2.164200109,20.0094807,2.352661132,20.26322023
2.915059125,-2.899888304,22.02147018,2.755910851,22.38190219
2.925100125,-2.18471448,22.41640282,2.604574385,22.67271268
2.935141125,-0.9966580541,20.04738936,1.642513282,20.13924024
2.945181125,-1.51931391,16.00231598,1.84038306,16.17929051
2.955222125,-1.750355235,12.76286963,2.030160291,13.04132415
2.965263125,-1.371555355,10.30745538,1.904590166,10.57129435
2.975303125,-0.5466024701,8.528624205,1.733229325,8.720108313
2.985344125,0.5516975876,7.433136658,1.139135842,7.540127404
2.995385125,1.349861308,6.798448881,0.3242959356,6.938746327
3.005425125,1.63271905,6.288714933,-0.2631597877,6.502534896
3.015466125,1.562534482,5.886929941,-0.6502454638,6.125379768
3.025506125,1.2947877,5.365769364,-1.07319913,5.623140798
3.035547125,0.5105611829,4.517702655,-1.202728406,4.702857176
3.045588125,-0.3690527169,4.541643494,-2.473958112,5.184900604
3.055628125,-1.191897462,5.607404966,-3.037628531,6.487742066
3.065669125,-2.164896658,6.966582643,-2.785341057,7.808852417
3.075710125,-2.81922801,7.790102157,-2.386756246,8.621504716
3.085750125,-3.133390429,8.797507247,-1.92745044,9.535687419
3.095791125,-3.299165424,10.03795253,-1.485678095,10.67015571
3.105831125,-3.138223152,10.92967748,-0.9653180015,11.4121923
3.115872125,-3.202984282,11.30021904,-0.1114912363,11.74591372
3.125913125,-1.842304894,10.34504128,1.054123174,10.56054649
3.135953125,-1.343794384,8.143260534,1.158728693,8.334334266
3.145994125,-1.974073068,5.782942473,-0.4157744916,6.124725019
3.156035125,-2.219988247,3.56796222,-0.1293907328,4.204217428
3.166075125,-2.717223333,0.6803668106,2.714377493,3.900518788
3.176116125,-2.304140059,-5.781935583,4.871248117,7.903726888
3.186157125,0.8104849005,-22.4296643,5.62554069,23.13857028
3.196197125,5.531420399,-53.87296123,8.161151844,54.76766347
3.20623825,11.08368846,-74.43909217,1.295681008,75.27088005
3.21627825,11.44968206,-48.17564947,-14.88299986,51.70582275
3.22631925,8.300337796,-21.62694918,-15.28567304,27.75378062
3.23636025,10.5698831,-11.33505208,-6.165297167,16.67982984
3.24640025,11.91546541,-10.33180319,5.643491642,16.75032749
3.25644125,9.239752632,-14.97353113,11.52576486,21.03385174
3.26648225,6.112795603,-17.23924767,11.16775388,21.43074094
3.27652225,6.554415336,-15.78266299,6.847856684,18.41048485
3.28656325,5.632940927,-12.03849551,1.451453757,13.37019505
3.29660425,1.918351588,-7.382177004,-3.214099254,8.27689822
3.30664425,-1.217531071,-3.170886576,-6.494227606,7.328840003
3.31668525,-3.463032181,0.04960660815,-7.757068897,8.495126284
3.32672525,-5.078547699,2.350462579,-6.270773921,8.404696701
3.33676625,-6.317718292,4.428120387,-3.100849797,8.314871258
3.34680725,-6.202041655,6.806916234,0.5068647559,9.222599481
3.35684725,-4.780739943,9.468223228,3.671826897,11.22430569
3.36688825,-3.046411342,11.96310034,5.219128797,13.40282422
3.37692925,-1.566024393,13.83117698,5.36769953,14.91864898
3.38696925,-0.4702094746,15.34276643,5.556414907,16.32468454
3.39701025,-0.933408357,17.36552064,5.091010455,18.12045655
3.40705125,-1.764859546,19.13174346,4.404895831,19.71145465
3.41709125,-0.6010929651,19.20548854,3.509164374,19.53269919
3.42713225,1.220094417,17.46531039,1.737812372,17.59391057
3.43717225,1.841272129,15.21375814,0.4629439437,15.33176562
3.44721325,1.033863303,12.92760324,0.4528738689,12.97678287
3.45725425,0.4291483529,11.00823716,0.8046341765,11.0459445
3.46729425,0.2186003499,9.464790913,1.288212944,9.554556281
3.47733525,0.2508027937,8.346657684,1.328309641,8.455412648
3.48737625,0.05734357081,7.516611509,0.2901587029,7.522428393
3.49741625,0.152577026,7.012762783,-0.5497844883,7.035935232
3.50745725,-0.1066863234,6.775485111,-1.101001471,6.865186429
3.51749725,-0.636184372,6.753949231,-1.43171648,6.933280093
3.52753825,-1.141815621,6.975692605,-1.997418222,7.345318903
3.53757925,-1.616444933,7.387670463,-2.265920611,7.894616223
3.54761925,-2.159840132,7.966092823,-2.166401001,8.533278242
3.55766025,-2.714977418,8.660491782,-1.646741989,9.224260375
3.56770125,-3.084054839,9.618763304,-0.6783846045,10.12384351
3.57774125,-3.175577797,10.70987479,0.05356166482,11.17088096
3.58778225,-2.655473228,11.02081686,0.4934897252,11.34695882
3.59782325,-1.282385609,10.07355038,0.5412293905,10.16926051
3.60786325,-0.4300859539,8.56459803,0.219345943,8.578194797
3.61790425,0.0948707816,6.969988647,-0.0691409862,6.970977168
3.62794425,0.5663537067,5.654116033,-0.8979569077,5.752921975
3.63798525,0.1539393541,4.326559514,-1.123535471,4.472711315
3.64802625,-0.8962775874,1.498117461,0.293483448,1.770254777
3.65806625,-1.093626232,-7.179717162,1.276261235,7.373818523
3.66810725,2.092971666,-30.38464917,2.142336785,30.53190205
3.67814825,4.607346902,-71.33136722,3.053054071,71.54517967
3.68818825,2.302086078,-73.27929929,-7.04684211,73.65333182
3.69822925,4.461854728,-32.09395871,-12.32210652,34.66647721
3.70827025,14.0487355,-11.83870784,-3.480859172,18.69861902
3.71831025,22.0734683,-9.094338226,7.314452798,24.96890487
3.72835125,18.60265347,-17.23525753,11.53276398,27.85888482
3.73839125,11.61631367,-22.8041925,10.56976264,27.68916433
3.74843225,9.40785482,-20.79055176,7.166721141,23.9189604
3.75847325,5.151204616,-16.83531617,2.943485436,17.85012286
3.76851325,-1.178488627,-12.37508697,-0.1506979867,12.43198789
3.77855425,-6.353780994,-8.50230998,-6.016052835,12.20052047
3.78859525,-10.59270478,-5.391943256,-11.0722747,16.24419015
3.79863525,-13.54707481,-2.250907885,-12.10021287,18.30314109
3.80867625,-13.41618138,1.99486182,-8.73142494,16.13106252
3.81871725,-10.49281329,6.08169894,-3.938927708,12.75152321
3.82875725,-7.213736263,8.430233692,0.313668073,11.09978462
3.83879825,-2.915153922,11.08847967,6.911004274,13.3871014
3.84883825,1.941805939,14.4228006,14.25180813,20.36913897
3.85887925,1.914118204,16.34752039,11.55341517,20.10936781
3.86892025,0.9672972109,19.19026239,6.054854958,20.14604436
3.87896025,1.529802353,21.13073341,1.198124893,21.21988909
3.88900125,2.35518479,20.85202237,-1.582507986,21.04419312
3.89904225,3.023885528,18.73747506,-2.731185315,19.17540687
3.90908225,3.420463867,15.95247081,-2.418491424,16.49333195
3.91912325,1.065862775,12.69892331,-0.5000725937,12.75338345
3.92916325,-1.193614058,9.899651849,1.123764682,10.03447399
3.93920425,-1.455320813,7.690514134,2.611104555,8.251050437
3.94924525,-0.9577557975,6.120079479,3.476807052,7.103580525
3.95928525,0.09571804315,4.982393746,2.874770712,5.753061449
3.96932625,1.194073942,4.461741877,1.688641967,4.917770313
3.97936725,1.849846632,4.620224226,-0.1947964629,4.980597366
3.98940725,1.847566072,5.430201003,-2.130483309,6.118786028
3.99944825,0.6734844916,7.153401183,-2.844593232,7.727641329
4.00948925,-0.6913962673,8.727073442,-2.259460022,9.041294114
4.01952925,-1.719929102,10.10097031,-0.7105594933,10.2709616
4.02957025,-2.2550559,11.11277836,0.8687863183,11.37250674
4.03961025,-2.538173696,11.7284621,1.780491199,12.13133537
4.04965125,-2.265300221,11.88920206,1.846938958,12.24319787
4.05969225,-2.003833057,11.81812214,1.425616665,12.0712775
4.06973225,-2.508372777,11.8966175,1.319202018,12.22954357
4.07977325,-2.873505667,11.97808441,1.439930649,12.40181202
4.08981425,-2.859999475,11.51168009,1.334415888,11.93645849
4.09985425,-2.827565847,10.26751305,0.9302744687,10.69029295
4.10989525,-2.721084834,8.804844334,0.4596712571,9.227181806
4.11993525,-2.391382563,6.79943706,-0.2823854327,7.213237583
4.12997625,-2.419718609,3.724595094,-0.2485335807,4.448529611
4.14001725,-3.191214714,-0.3567491519,2.669734586,4.175955468
4.15005725,-4.596347997,-14.31327757,5.380923593,15.96717472
4.16009825,-1.913381601,-54.13803656,8.260446922,54.79802018
4.17013925,5.900411866,-94.11841101,6.121597416,94.50166192
4.18017925,12.43257913,-58.99790073,-13.06342003,61.69257863
4.19022025,15.11391342,-20.79035296,-17.06789502,30.85420872
4.20026125,17.39707572,-10.55748934,-9.20021376,22.33299707
4.210300875,13.51075541,-15.03195651,0.6398689219,20.22151479
4.220341875,5.477395635,-24.07188756,4.711606851,25.13278482
4.230381875,1.282447151,-24.52388669,8.523430123,25.99451
4.240422875,-0.6188960557,-18.15362356,10.02818768,20.74853318
4.250463875,-2.129306703,-9.947987273,5.217654129,11.43329841
4.260503875,-3.392563877,-3.65031499,-1.672383199,5.256534481
4.270544875,-4.548806626,0.7363398671,-5.187018228,6.938227166
4.280585875,-5.887028174,3.6884938,-5.637371947,8.946622251
4.290625875,-6.520648835,5.964816023,-2.874808134,9.293137964
4.300666875,-5.429455483,8.16310423,1.635100182,9.939256014
4.310707875,-2.286576485,10.46955423,5.565777469,12.0755073
4.320747875,-0.1626541905,12.48464625,6.558646381,14.10349923
4.330788875,0.5500351511,14.62070195,5.558284847,15.65126176
4.340828875,1.48002793,16.53927515,3.936418083,17.06556452
4.350869875,2.554310257,17.67742398,2.288512498,18.00702943
4.360910875,3.069284772,18.23375147,1.330211155,18.53805986
4.370950875,3.349372834,17.84283821,0.2315193343,18.15595701
4.380991875,3.290367119,16.45749131,-0.6697704864,16.79655109
4.391032875,1.685871556,14.30189188,-1.054728945,14.43948501
4.401072875,-0.1674312926,12.03864753,-0.5885959303,12.05419068
4.411113875,-1.033809874,10.06477722,0.8579689693,10.15404422
4.421154875,-1.891101809,8.504650036,2.23013799,8.993267134
4.431194875,-2.826722386,7.226230593,2.338548292,8.104170294
4.441235875,-3.226179602,6.265255319,1.415565301,7.187870627
4.451275875,-2.703198202,6.186358838,0.57309847,6.775452608
4.461316875,-2.014304104,6.700485799,0.08110672832,6.997178665
4.471357875,-1.156278563,7.151117261,-0.3904291141,7.254508466
4.481397875,-0.09470705956,7.75226307,-0.7795215547,7.791932109
4.491438875,0.5842410703,8.464155729,-0.8926230776,8.531122188
4.501479875,0.9855654475,9.096973566,-0.9663051577,9.201087598
4.511519875,1.059439901,9.604864472,-1.226101481,9.740593374
4.521560875,0.7136349826,10.05376107,-1.564143051,10.19970244
4.531600875,0.08478594258,10.41390628,-1.601787425,10.53671465
4.541641875,-0.9743425941,10.65451102,-1.428686599,10.79393783
4.551682875,-2.446687137,10.5572344,-1.141964652,10.89704361
4.561722875,-3.680403008,9.601905781,-1.004552892,10.33204178
4.571763875,-4.219120727,8.102270383,-0.6034507817,9.15488492
4.581804875,-4.550220483,6.820785829,-0.1229131508,8.20016667
4.591844875,-4.785116584,5.306762187,-0.1591892767,7.147335648
4.601885875,-5.211185355,2.569734335,-0.1184096984,5.81154095
4.611926875,-5.769987382,-2.536598749,1.493700475,6.477517172
4.621966875,-4.808436157,-12.78146963,3.734761063,14.15752324
4.632007875,-0.2411432666,-34.4529056,6.587869595,35.07792582
4.642048875,4.526714676,-70.30287941,9.471556726,71.08232119
4.652088875,12.55225877,-69.65712695,1.154155,70.78846381
4.662129875,16.78838057,-35.93805861,-14.81374544,42.34195122
4.672169875,19.354292,-19.19410986,-16.21537566,31.71657106
4.682210875,19.5832865,-14.90805284,-7.707371657,25.79067133
4.692251875,12.97496919,-21.8022183,-0.182833151,25.37163725
4.702291875,7.702811413,-27.14123607,4.032960876,28.49990829
4.712332875,3.833517612,-23.14411453,7.580913924,24.6539277
4.722373875,-0.6320322642,-14.76968667,6.946109787,16.33375493
4.732413875,-4.146253603,-7.82970184,0.9113973176,8.906531026
4.742454875,-5.83541948,-2.64344492,-3.532907578,7.315829242
4.752495875,-6.760524425,1.837731932,-4.228391195,8.182984862
4.762535875,-7.218022272,5.906898767,-3.385914423,9.922485326
4.772576875,-7.110613014,9.002010691,-1.20363297,11.53454578
4.782616875,-4.946029912,11.42910805,2.297707829,12.66361654
4.792657875,-0.8925350039,13.11727522,6.849666982,14.82489345
4.802698875,1.284000025,14.46474268,8.031100413,16.59445723
4.812738875,1.80130641,16.71011208,6.193953202,17.91194034
4.822779875,1.54210051,18.68484428,3.475210762,19.06773635
4.832820875,1.172189787,20.38885506,2.460166869,20.5701692
4.842860875,0.972317411,21.33387738,2.214751042,21.47055769
4.852901875,0.9593648782,19.87256229,1.839654497,19.98057661
4.862942875,-0.1755476665,15.85215598,0.8747469699,15.8772431
4.872982875,-0.9883545694,11.94235793,0.5014010811,11.99367169
4.883023875,-0.795203714,9.12539045,0.5574524903,9.176919586
4.893063875,-0.167349724,6.902894186,1.083331186,6.989389138
4.903104875,1.005637769,5.245526637,1.423624519,5.527527819
4.913145875,2.345311766,4.145144386,1.340305789,4.947638716
4.923185875,3.265938621,3.814753312,0.1278411841,5.023449142
4.933226875,3.101580698,4.311480714,-1.719992398,5.58274508
4.943267875,1.514177716,5.560015622,-3.039166934,6.514832579
4.953307875,-0.5341713627,6.732247875,-3.810408247,7.754206052
4.963348875,-2.025680739,7.505558517,-3.880887076,8.688962861
4.973389875,-3.048303793,8.278577383,-2.861975834,9.274583828
4.983429875,-3.726082626,8.990178266,-1.094972992,9.793158981
4.993470875,-3.560455565,9.769094049,0.875599494,10.43449648
5.003510875,-3.224944962,10.3959565,2.691990259,11.2126265
5.013551875,-2.933792506,11.03730133,3.719913229,12.01111625
5.023592875,-2.416790469,11.77111637,3.588314624,12.54097518
5.033632875,-2.12661406,12.07264091,2.344312477,12.48066292
5.043673875,-1.933965846,11.78355924,0.8074841094,11.96848039
5.053714875,-1.944010632,11.34668102,0.003355150614,11.51200933
5.063754875,-2.332911722,10.46473145,-0.08335675517,10.72194151
5.073795875,-2.751477784,9.329664098,0.5527817345,9.742629513
5.083835875,-2.738692262,7.522261673,1.142859349,8.08646916
5.093876875,-2.847104903,4.173287619,1.742812911,5.34413068
5.103917875,-2.337942959,-1.056870781,4.031404932,4.778616834
5.113957875,-1.522818,-13.12852643,6.92050483,14.91879915
5.123998875,0.206714203,-45.68708852,10.51967539,46.88300714
5.134039875,5.957321062,-85.49717334,9.939797662,86.27894239
5.144079875,15.07506101,-65.58517274,-10.44932754,68.10184134
5.154120875,20.34465713,-27.64470941,-23.83370474,41.7873248
5.164161875,21.92881754,-13.18934917,-14.82862777,29.57566858
5.174201875,15.59031883,-16.72460148,-1.374964575,22.90547671
5.184242875,8.272030841,-26.29455691,5.000834695,28.01497037
5.194283875,5.27962526,-26.78798005,7.588737499,28.33830014
5.204324,2.566944336,-19.43419186,7.675251732,21.05199529
5.214365,-0.5204684128,-10.82542279,5.481154225,12.14511085
5.224405,-2.934246543,-4.462182173,1.574432981,5.567738475
5.234446,-4.948694488,-0.004323431253,-1.421516597,5.148815909
5.244487,-6.493752812,3.484027779,-2.411514527,7.753881445
5.254527,-8.380544638,6.497669862,-0.9199377608,10.64422508
5.264568,-9.788820215,8.616540601,0.8959874924,13.07167039
5.274609,-9.435428535,10.89463628,2.387766645,14.6089644
5.284649,-7.880283179,13.24769035,3.978064291,15.91933284
5.29469,-5.559582928,15.3944792,4.558150184,16.99045866
5.30473,-3.098771404,17.01639158,4.283509973,17.81876607
5.314771,-0.6564232665,18.53156536,3.470242968,18.86511046
5.324812,1.083685527,19.27097034,2.280776632,19.43570463
5.334852,2.660936281,18.15039122,1.193359412,18.38318226
5.344893,3.791305393,15.53273077,-0.2018634077,15.99001159
5.354934,3.801740919,12.63369996,-1.242863109,13.25172885
5.364974,3.045895325,10.33533958,-1.783946904,10.92150123
5.375015,2.947793372,8.594052794,-1.386063759,9.190669287
5.385056,2.780893957,7.235044686,-0.06772478144,7.751375972
5.395096,2.212505127,6.24027309,1.491814163,6.786876798
5.405137,1.812582619,5.91192211,2.395361009,6.631291967
5.415177,1.138741009,6.334179958,1.669667752,6.648786147
5.425218,0.2482162779,7.09521671,-0.03377468477,7.09963747
5.435259,-0.678936874,7.590691638,-1.309637142,7.732703555
5.445299,-1.586509382,7.710815667,-2.019427142,8.127224388
5.45534,-2.192473589,7.856898994,-1.750179818,8.342717282
5.465381,-2.451848913,8.254551759,-0.9034328252,8.658254945
5.475421,-2.723672227,8.773321409,0.07440932751,9.186680342
5.485462,-2.758035144,9.486306328,0.9872088075,9.928310371
5.495503,-2.808605666,10.24628181,1.696670194,10.75886827
5.505543,-3.160708913,10.87359917,2.14648246,11.52530376
5.515584,-3.072956531,11.50452777,1.901758944,12.05876893
5.525624,-2.725525502,11.86202303,1.165930123,12.22683412
5.535665,-2.343842361,11.83362544,0.5335362089,12.07530327
5.545706,-2.43927316,11.0470042,0.24758635,11.31581435
5.555746,-2.591559067,9.964168857,0.6958478987,10.31915906
5.565787,-1.916771524,8.687221743,0.9937553501,8.951501795
5.575828,-1.440609364,4.923214661,-0.7629061067,5.186079798
5.585868,-2.527432069,0.3602779466,-0.8744224495,2.698578826
5.595909,-3.04490773,-7.36748529,2.608537627,8.387834711
5.60595,-0.9873172733,-26.0634001,7.061778238,27.02118302
5.61599,4.439247639,-65.60544153,11.34917193,66.72768977
5.626031,9.378891807,-81.15057775,7.171919315,82.00497734
5.636071,11.55986816,-42.8155864,-14.68564932,46.7169486
5.646112,14.95594037,-19.68771076,-21.29309656,32.62946626
5.656153,19.63112608,-15.3711722,-10.3270342,26.98706508
5.666193,17.33188628,-22.03443229,1.947211105,28.10163909
5.676234,9.917705712,-26.68843003,7.733012867,29.50309597
5.686275,7.749942895,-23.38352059,9.588135588,26.43450386
5.696315,6.15867578,-15.67765752,8.822632148,19.0146541
5.706356,2.51134287,-8.465447379,5.20675375,10.25089884
5.716397,-1.207024428,-3.112588082,-0.306932044,3.352509481
5.726437,-4.006118647,0.512086283,-4.728872509,6.218798452
5.736478,-7.252931319,2.533364654,-6.252688483,9.905506673
5.746518,-10.12078887,4.454739836,-4.89618006,12.09328961
5.756559,-11.69343143,7.018462064,-2.103262181,13.79923404
5.7666,-10.33829944,9.903672395,0.0004620031267,14.31653458
5.77664,-7.832236608,12.70084705,2.037314944,15.06008294
5.786681,-6.446880362,14.84947193,4.523621206,16.80869512
5.796722,-5.768706842,16.48340267,6.672116278,18.69485699
5.806762,-4.248236645,17.87536977,5.830468057,19.27616966
5.816803,-2.63701883,18.45190173,3.33161484,18.93478817
5.826844,-1.323031067,17.78568401,1.304593334,17.88247552
5.836884,0.7143814527,15.54998006,-0.936661967,15.5945361
5.846925,2.578170113,12.984996,-1.903424231,13.37460676
5.856965,3.476368511,11.10672532,-1.135925721,11.69336618
5.867006,3.653054996,9.464158829,0.2719446445,10.14835292
5.877047,2.920552656,7.960526274,1.238574761,8.569345005
5.887087,1.763200544,6.854996719,1.814633092,7.307034243
5.897128,1.44014261,6.245350227,1.921306186,6.691025905
5.907169,1.371099857,6.257800119,1.381346226,6.553479575
5.917209,1.101532837,6.971374437,-0.07840181549,7.058298872
5.92725,-0.03947265252,7.800981486,-2.099962013,8.078781511
5.937291,-1.585095963,8.293439836,-3.172420886,9.019862959
5.947331,-2.706218289,8.561676176,-2.789486732,9.402507783
5.957372,-3.323620819,8.716592308,-1.418644445,9.435994323
5.967412,-3.57470406,8.84802836,-0.06781366825,9.543097698
5.977453,-3.32315772,9.116120274,0.9459543622,9.748941262
5.987494,-2.97393715,9.316678602,1.545510314,9.901181973
5.997534,-2.98085733,9.430970033,1.445182618,9.995862093
6.007575,-2.929653555,9.869894199,1.249442396,10.37105529
6.017616,-2.775494638,10.67728358,1.183120937,11.09538329
6.027656,-2.589397936,11.6713886,1.314921856,12.02727371
6.037697,-2.653453599,11.84609171,1.572747813,12.2410882
6.047737,-2.035614574,10.58579688,1.890098426,10.94418998
6.057778,-0.9551831688,9.236427321,2.284600126,9.562602275
6.067819,-0.06185754821,6.237895612,1.530534425,6.42321599
6.077859,-1.719500209,1.267623729,0.1885726865,2.144553693
6.0879,-3.476421136,-6.594788606,2.112896054,7.748617322
6.097941,-1.968011552,-29.62972685,6.022589437,30.2995935
6.107981,5.376706581,-78.33632222,10.360858,79.20123566
6.118022,12.56147398,-86.46459283,0.5172663313,87.37381762
6.128063,12.27245313,-37.76932703,-19.61743775,44.29423251
6.138103,13.41045227,-14.49897813,-18.30826371,26.93052389
6.148144,15.03744003,-11.38394065,-7.448432974,20.27801423
6.158185,11.22075187,-20.00549757,1.977956935,23.02254372
6.168225,5.77662748,-24.66812347,7.689245288,26.47659785
6.178266,3.921531072,-20.89422991,11.3068989,24.07889558
6.188306,2.227848805,-12.80836799,8.524784338,15.5463677
6.198347,-0.1953275545,-5.433124611,1.977702581,5.785179633
6.20838875,-1.7169096,-0.345438298,-2.164718757,2.784441324
6.21842875,-3.483574619,3.079819116,-4.588979044,6.532940118
6.22846975,-5.758093561,5.696282644,-4.868085358,9.449948808
6.23851075,-7.783781902,7.586961114,-3.248942227,11.34481667
6.24855075,-8.737097324,9.231815622,-0.2423741785,12.71306551
6.25859175,-8.628630304,11.26133623,2.684496467,14.43874911
6.26863175,-7.491516429,13.12988766,4.361053408,15.7332627
6.27867275,-5.47426562,14.87594812,5.094319979,16.64973011
6.28871375,-3.376931054,16.31190032,4.899164479,17.36328218
6.29875375,-1.292096957,17.26523504,3.710667611,17.7066911
6.30879475,0.7003873846,16.94941406,2.031923811,17.08513663
6.31883575,2.180468524,15.47339323,0.2928776765,15.62901527
6.32887575,3.27761171,13.91232932,-0.7623775184,14.31352036
6.33891675,3.793174163,12.18268317,-1.332768143,12.82895983
6.34895775,3.206372451,10.30656777,-1.566241032,10.90684531
6.35899775,1.883217131,8.820853425,-0.9901271528,9.073825747
6.36903875,0.6954036565,7.706165376,0.2303890675,7.740907581
6.37907875,-0.2539165092,6.948469723,1.411627201,7.094955704
6.38911975,-0.8378902155,6.728952384,2.113502995,7.102658313
6.39916075,-1.304251126,7.049292678,1.599779491,7.345263282
6.40920075,-1.959826327,7.64992978,0.3793170655,7.906087927
6.41924175,-2.716756725,8.165448378,-0.6460506713,8.629756416
6.42928275,-2.885365574,8.366746963,-1.291479199,8.944031964
6.43932275,-2.457218411,8.650358557,-0.9405667377,9.041642067
6.44936375,-1.689247884,9.022622711,-0.1452646991,9.180543602
6.45940475,-0.7359788015,9.328167211,0.2700747049,9.361052754
6.46944475,-0.2540745302,9.483408448,0.2215849515,9.489398798
6.47948575,-0.4627023076,9.6367049,-0.1691845437,9.649290035
6.48952575,-1.174428028,10.02711179,-0.5526332152,10.11076929
6.49956675,-2.40291912,10.49925107,-0.5210991812,10.78331293
6.50960775,-3.640027691,10.12492402,-0.1887574768,10.76101842
6.51964775,-3.898202435,8.86055485,0.6080834941,9.699236053
6.52968875,-3.605904218,8.224995838,1.785350236,9.156450034
6.53972975,-3.131513472,5.97528137,1.873340306,7.001411856
6.54976975,-3.945607274,1.461844259,1.686880785,4.533251833
6.55981075,-5.288218328,-5.14311207,4.424961137,8.602158793
6.56985175,-4.306593611,-20.55383542,8.671073488,22.71991229
6.57989175,2.689453737,-57.41788951,14.01508595,59.1647685
6.58993275,12.01821619,-86.94262376,13.46796315,88.79664058
6.59997375,17.15480803,-53.30056091,-10.11149179,56.89885323
6.61001375,16.8826026,-23.88363529,-28.01412714,40.4998966
6.62005475,19.24506016,-14.78413748,-23.93149826,34.08312882
6.63009475,17.27757267,-15.01843541,-11.29100851,25.52557134
6.64013575,11.65189749,-19.99570933,-1.314551142,23.18023191
6.65017675,6.85846938,-20.22257662,5.329698476,22.00901845
6.66021675,3.323501244,-14.53730896,9.496819621,17.67960959
6.67025775,-0.67830479,-7.835283008,8.062746713,11.26319856
6.68029875,-4.204007721,-2.251827067,3.007490813,5.63820956
6.69033875,-6.547758865,2.259867573,-1.382222139,7.06333389
6.70037975,-8.496489662,5.64534521,-2.161137922,10.42740506
6.71042075,-10.55745075,8.463381557,-1.839935163,13.65554668
6.72046075,-11.5758755,10.52454846,-1.150832613,15.68730154
6.73050175,-10.97725861,12.31320588,0.51028651,16.50380678
6.74054175,-9.049397696,14.13587188,2.807891428,17.0176005
6.75058275,-5.695738853,15.51673513,4.940841093,17.25173675
6.76062375,-2.297743497,16.42098832,5.578608599,17.49426639
6.77066375,-0.2297508439,17.02986122,4.054561075,17.50738199
6.78070475,0.2849545531,17.06266293,2.380823661,17.23032172
6.79074575,0.299458133,16.41197425,1.556917062,16.48837665
6.80078575,-0.1250302083,15.20776591,1.0187253,15.2423613
6.81082675,-0.3831113237,13.64747267,0.8831307077,13.68138167
6.82086675,0.05719183557,11.61788657,1.0133061,11.66213311
6.83090775,0.8568904504,9.660649248,1.174129089,9.769390168
6.84094875,1.696021591,8.038421711,1.245515406,8.309273222
6.85098875,2.543565706,6.840176951,0.7200916243,7.333231154
6.86102975,3.008916364,6.262164481,-0.2167662062,6.950918591
6.87107075,2.741619963,6.374248003,-0.8850930333,6.995063067
6.88111075,1.664478786,6.8200713,-1.211489289,7.124013508
6.89115175,0.2823202363,7.7287865,-1.574491453,7.892583152
6.90119275,-0.7683296916,8.558399397,-1.803197107,8.7799801
6.91123275,-2.176326942,8.842405093,-2.032900296,9.330445348
6.92127375,-3.692234556,8.718566912,-2.178114728,9.715461327
6.93131375,-4.73631426,8.658097347,-1.705609417,10.01520973
6.94135475,-5.326813459,8.769735312,-1.099628545,10.31951462
6.95139575,-5.450645792,8.872821139,-0.511817238,10.42585495
6.96143575,-5.082522637,8.724735725,-0.4646302076,10.10786481
6.97147675,-4.038920943,7.967718349,-0.8351999116,8.971899295
6.98151775,-3.144383487,7.189530544,-0.5851847378,7.868858757
6.99155775,-2.398663516,6.020910702,-0.0451065179,6.48127973
7.00159875,-1.999022406,4.129894847,-0.2251259887,4.593778808
7.01163975,-2.052898651,0.9370396972,0.2325455207,2.268592887
7.02167975,-2.27631199,-5.531925598,2.399476279,6.445252789
7.03172075,-0.3814675252,-22.00351455,6.701664598,23.00461863
7.04176175,4.192954144,-59.7337471,13.25027365,61.32920314
7.05180175,8.196617546,-79.1890474,12.62892045,80.60756416
7.06184275,9.569836142,-46.19394389,-10.28412031,48.28276448
7.07188275,12.64408929,-23.49167771,-23.75039829,35.71852929
7.08192375,19.41916685,-15.08399907,-15.07237247,28.84107281
7.09196475,22.24810358,-14.71745349,-0.09905475676,26.67566985
7.10200475,16.03911368,-19.02037037,7.93538617,26.11509162
7.11204575,9.373339291,-18.22283706,10.94820497,23.23347739
7.12208675,7.239641767,-12.85212621,10.31042577,17.99706755
7.13212675,3.379182232,-6.77886831,7.226124759,10.46846728
7.14216775,-7.309019566e-05,-1.673016452,2.816217864,3.275678114
7.15220875,-2.914935528,1.818505118,-1.470792253,3.737250306
7.16224875,-5.58907453,3.983825553,-5.188872964,8.604244463
7.17228975,-8.577218075,5.486355908,-7.903224145,12.88913197
7.18232975,-10.96387667,7.055898862,-8.891915222,15.781586
7.19237075,-12.0367928,8.627582483,-6.990122949,16.37624436
7.20241175,-11.46072628,10.35992362,-4.212362223,16.01312773
7.212451542,-9.576299654,12.36570803,-1.243976419,15.68960572
7.222492542,-7.523593084,14.22163299,2.451426451,16.27479
7.232533542,-5.584018443,15.81457358,7.516103386,18.37862371
7.242573542,-3.838821622,16.86666075,9.028134881,19.51225297
7.252614542,-2.645383857,17.21108982,7.13552683,18.81848591
7.262655542,-1.119452945,16.19853684,4.304129595,16.7979553
7.272695542,0.872571221,14.57045215,1.569533014,14.68069788
7.282736542,1.967062549,12.9648617,-0.1957314509,13.11469728
7.292776542,2.548667402,11.21483566,-0.8220799291,11.53013703
7.302817542,3.238304388,9.428345218,-0.6049377286,9.987304867
7.312858542,3.57921811,7.7100643,-0.5479226983,8.517987619
7.322898542,3.311089651,6.558494353,-0.4873461288,7.363061124
7.332939542,2.512659078,6.14866944,-0.8124425483,6.691760189
7.342980542,1.398452255,6.488440032,-1.45070122,6.79411928
7.353020542,-0.04244873911,7.253084516,-2.173873158,7.571972094
7.363061542,-1.374271972,7.659982313,-2.778895086,8.263547083
7.373102542,-2.268366355,7.589844961,-2.901787187,8.436326294
7.383142542,-2.731602221,7.609759408,-2.135130091,8.362348322
7.393183542,-2.786055294,7.909809279,-0.6841376799,8.413990213
7.403223542,-2.773385255,8.584545221,0.9067604756,9.066879121
7.413264542,-2.772289487,9.363299037,2.052125942,9.978385577
7.423305542,-3.233305603,9.933080381,2.589899043,10.76233841
7.433345542,-3.796403873,10.6613698,2.602808526,11.61258372
7.443386542,-4.158488024,11.33267343,2.37068342,12.30214004
7.453427542,-4.407275063,11.08099406,2.113216481,12.11107703
7.463467542,-3.522782539,9.855535777,2.366491551,10.73041772
7.473508542,-2.231380523,7.908909978,1.861635935,8.42588894
7.483549542,-2.301486739,3.41361093,-0.529215153,4.150861292
7.493589542,-3.22696576,-2.268622609,0.3206040037,3.957618411
7.503630542,-2.8907187,-15.12645102,5.067405245,16.21247579
7.513671542,1.745135864,-52.88263,9.918490409,53.83302432
7.523711542,10.16793848,-96.14979921,9.968396394,97.19845569
7.533752542,12.02138772,-63.02744157,-14.37789048,65.75481647
7.543792542,12.36987359,-22.47707353,-28.18165454,38.110868
7.553833542,17.39253126,-10.6182115,-16.76023792,26.38469508
7.563874542,18.47626825,-13.18534617,-2.369762483,22.82195469
7.573914542,10.622701,-21.35389123,6.160625242,24.63298095
7.583955542,5.263648912,-21.61308193,12.51152356,25.52194217
7.593996542,2.471288566,-15.43612073,12.90329519,20.27007936
7.604036542,0.06270290941,-7.421143434,4.784872463,8.830192864
7.614077542,-1.867846116,-1.28027301,-0.7795683324,2.394926905
7.624118542,-3.908965405,2.980038135,-2.749180706,5.631929721
7.634158542,-5.787783383,6.292830203,-2.906014724,9.030120156
7.644199542,-7.203383768,8.91805403,-1.600539629,11.57506598
7.654240542,-8.021507471,10.44688107,-0.08965300044,13.17155814
7.664280542,-7.549335451,11.88162524,0.8380054057,14.10204727
7.674321542,-5.720995317,13.46251705,1.903732964,14.75104579
7.684361542,-3.498370121,15.2805848,3.119605325,15.9833289
7.694402542,-1.851855882,16.92616202,3.987195303,17.48776879
7.704443542,-0.4660511541,17.91362109,4.184559882,18.40178159
7.714483542,1.005671391,17.8262286,3.720871003,18.23816554
7.724524542,1.965832879,16.32068518,2.367064578,16.60819853
7.734565542,2.238597157,13.96176168,0.6680508202,14.15586092
7.744605542,2.181265208,11.5883137,-0.1395923334,11.79264255
7.754646542,1.813188829,9.766994898,-0.2347984529,9.936647996
7.764687542,1.309340981,8.435260543,-0.3713075495,8.544346876
7.774727542,0.7797042802,7.639053959,-0.221500715,7.681936391
7.784768542,0.5607165523,7.176066161,-0.02907588283,7.197997916
7.794808542,0.3797709556,6.972134575,-0.08866304856,6.98303284
7.804849542,-0.1772953261,7.18317579,-1.013016078,7.25642127
7.814890542,-1.218558134,7.446527367,-1.628621467,7.719330388
7.824930542,-2.715499866,7.617705774,-1.993140984,8.32922516
7.834971542,-3.879258041,7.632753584,-2.381027729,8.886892779
7.845012542,-4.354941606,7.857790695,-2.204742948,9.250474716
7.855052542,-4.147937601,8.359043257,-1.31018795,9.423140823
7.865093542,-3.631541335,8.913922387,-0.298269997,9.629904973
7.875134542,-2.883285427,9.273143742,0.6240557849,9.731082948
7.885174542,-2.364068172,9.498737508,1.317846633,9.876818937
7.895215542,-2.175616651,9.96970734,1.168968921,10.27106911
7.905255542,-2.384612511,10.49077495,0.56972459,10.7734545
7.915296542,-2.762072062,10.44190158,-0.3020689148,10.80525781
7.925337542,-2.965371856,9.384081795,-0.7514028794,9.870107784
7.935377542,-2.850526986,7.936526962,-0.5595341356,8.45145211
7.945418542,-2.716676326,6.080288007,-0.8031758809,6.707855396
7.955459542,-2.907147329,3.425068549,-0.6522018691,4.53959992
7.965499542,-3.164127195,-1.822151442,2.050316813,4.187569201
7.975540542,-2.191364811,-14.65574198,6.444591762,16.15938166
7.985581542,2.436323532,-50.75875288,12.36699559,52.3003752
7.995621542,7.239073418,-93.96203307,16.05444742,95.59818578
8.005662542,10.11357808,-64.78923572,-3.633128854,65.67441779
8.015703542,12.43105184,-25.10384161,-22.35605488,35.84029998
8.025743542,20.35941082,-11.7957998,-18.33531059,29.83002039
8.035784542,25.17702302,-12.69598801,-4.945291994,28.62737348
8.045824542,17.64039123,-22.18685517,2.938328776,28.49690721
8.055865542,10.53930801,-24.41950687,7.425463357,27.61388845
8.065906542,8.725085388,-17.63195837,9.821102693,21.98788596
8.075946542,5.119254845,-9.489341033,7.721680963,13.26192747
8.085987542,1.608609079,-3.239634629,3.395632496,4.961166773
8.096028542,-1.085207557,0.9810171908,-0.6870302975,1.616193305
8.106068542,-3.813339748,3.642815351,-3.943511925,6.585055051
8.116109542,-6.765581097,5.57110779,-5.787952952,10.50289146
8.126150542,-9.058856152,7.429357603,-5.36379359,12.88520511
8.136190542,-10.75900427,9.081954993,-1.88641468,14.20551441
8.146231542,-10.47331048,11.50592175,2.28983163,15.72640444
8.156271542,-9.201467403,14.26825869,5.444878099,17.82966365
8.166312542,-8.341570022,16.47998672,8.119184039,20.17654337
8.176353542,-6.996380639,18.59468372,7.697423204,21.30638234
8.186393542,-5.354434537,19.74505323,5.172266872,21.1018824
8.196434542,-3.226168784,19.40243446,3.138577201,19.91766289
8.206475542,-1.75420241,17.04013595,1.410238488,17.18814219
8.216515542,-0.906216246,14.19093511,0.3388379975,14.22387705
8.226556542,-0.2240793371,11.89659528,0.1405775893,11.89953582
8.236597542,0.3013406441,9.988216116,0.6064533269,10.01114644
8.246637542,0.8738466449,8.303377179,0.5584430087,8.367887375
8.256678542,1.514192042,6.875633297,0.3242538357,7.047854377
8.266719542,2.313159682,5.956213599,0.4946112943,6.408730646
8.276759542,2.857153636,5.749437928,0.3356114674,6.42899669
8.286800542,2.999387741,6.207068506,-0.9054121077,6.952970398
8.296840542,2.337423288,7.064044619,-2.587796384,7.877878149
8.306881542,0.9206296326,8.037622982,-3.757442998,8.920163675
8.316922542,-0.5705106385,8.546535396,-3.544939978,9.270132098
8.326962542,-2.024188091,8.762858402,-2.270103124,9.275688276
8.337003542,-2.83661763,8.963914912,-0.7189677894,9.429479562
8.347044542,-3.120852537,9.075457567,0.3998904938,9.605392392
8.357084542,-3.169289117,9.14146503,1.117731525,9.739614991
8.367125542,-3.144801562,9.205597876,1.38837341,9.826514634
8.377166542,-2.953190644,9.519997984,1.43926582,10.07090774
8.387206542,-3.084628451,10.00114665,1.56760928,10.58278157
8.397247542,-2.987973391,10.68949374,1.527236595,11.20382582
8.407287542,-2.558258882,10.76769323,1.760004895,11.20649469
8.417328542,-1.383768435,9.820770571,2.476972352,10.22241369
8.427369542,-0.06344725996,7.684539449,2.50279658,8.082089013
8.437409542,0.1208999544,3.436812097,0.647538203,3.49937136
8.447450542,-0.6150291458,-1.895661467,0.8135003096,2.152574273
8.457491542,-0.3701299202,-13.70882049,2.984754499,14.03486782
8.467531542,5.678381978,-49.17390016,7.121698165,50.01034957
8.477572542,15.75642419,-90.49455935,6.438026508,92.08136815
8.487613542,10.49465282,-59.26883732,-13.31928132,61.64686585
8.497653542,8.508633159,-21.35053493,-17.22662938,28.72279478
8.507694542,15.32948155,-12.67412644,-6.51087346,20.92887859
8.517735542,17.22772047,-17.24988727,3.301870054,24.60193711
8.527775542,12.05405027,-23.51901227,8.572573632,27.78368379
8.537816542,9.747884443,-21.93191422,10.86976808,26.34733327
8.547856542,6.984152942,-14.64361017,6.095240507,17.33106079
8.557897542,2.366104027,-7.928931429,-2.187768481,8.558781034
8.567938542,-0.8439767285,-3.361785888,-5.009126047,6.091407459
8.577978542,-3.841834692,-0.2431237185,-4.645161431,6.032936902
8.588019542,-6.341255089,2.124175333,-3.210582154,7.418320208
8.598060542,-7.7645393,4.855203942,-0.718328104,9.185699272
8.608100542,-9.260903181,7.874835328,1.468661528,12.24476728
8.618141542,-10.10020082,10.31238809,2.158478608,14.59515107
8.628182542,-9.755891621,12.46726949,2.650559227,16.05103405
8.638222542,-8.504333117,14.40730782,3.059066763,17.00741279
8.648263542,-6.760074189,16.31708446,2.855669028,17.89135808
8.658304542,-4.857809461,17.558653,2.197217581,18.35026902
8.668344542,-3.01913642,18.26950953,1.059599676,18.54758514
8.678385542,-1.647093699,18.11639551,0.5863178551,18.20056243
8.688425542,-1.052903883,16.45802692,0.6253842723,16.50352575
8.698466542,-0.6276984541,14.3131887,0.7052127993,14.34429159
8.708507542,0.01582241938,12.57277431,1.028969622,12.61481996
8.718547542,0.7570162064,10.96807497,1.091987404,11.04826587
8.728588542,1.457774743,9.524705577,1.060728189,9.693826274
8.738629542,1.925160524,8.182194804,0.6148136759,8.428081081
8.748669542,2.021821138,6.996277143,0.06759848158,7.28287197
8.758710542,1.933074877,6.23778393,-0.134563728,6.53183238
8.768751542,1.641270457,6.124918635,-0.2176275194,6.344742606
8.778791542,0.9675763424,6.476927449,-0.6253614682,6.578591804
8.788832542,-0.162960877,6.834073042,-1.341460029,6.966392582
8.798872542,-1.420556192,7.134573149,-1.918498937,7.523347133
8.808913542,-2.339296736,7.352247446,-2.136664985,8.005822193
8.818954542,-3.042407753,7.635930376,-2.047759241,8.470950097
8.828994542,-3.588059685,8.052559694,-1.628213332,8.964874153
8.839035542,-3.87450367,8.609844369,-0.8962817536,9.483908463
8.849076542,-3.701986543,9.364590687,-0.05101458114,10.06989899
8.859116542,-3.566530237,9.967996445,0.8321826752,10.61949241
8.869157542,-3.595908988,10.6262561,1.684278774,11.3439268
8.879198542,-3.586857498,11.09962212,2.072116402,11.84739737
8.889238542,-3.086187903,10.60812623,2.154390235,11.25603372
8.899279542,-1.756568925,9.468469396,2.867742358,10.04795468
8.909320542,-0.3790577415,6.655490305,2.349563861,7.068216629
8.919360542,-1.286231323,1.036758113,0.1922154836,1.663191268
8.929401542,-2.798873852,-7.196172397,2.11515074,8.005776331
8.939441542,-2.99407116,-27.10201763,5.793800168,27.87565142
8.949482542,4.519577272,-72.38316905,11.55394493,73.43870494
8.959523542,14.01379137,-88.06846069,2.446681436,89.21001271
8.969563542,12.53648181,-43.3500453,-23.37583969,50.82144907
8.979604542,14.86578917,-17.47001389,-23.70468476,32.98643892
8.989645542,21.54611026,-11.55231239,-6.879712315,25.39726817
8.999685542,19.50383687,-18.18850688,4.249714236,27.00521258
9.009726542,10.04143046,-23.75657061,8.751537023,27.23590228
9.019767542,6.923058894,-19.4972611,11.07768922,23.46885453
9.029807542,3.709933786,-12.04893396,8.401707466,15.15021804
9.039848542,0.1776017202,-5.579565203,3.048773324,6.360668912
9.049889542,-2.133942668,-1.063026729,-1.251382502,2.692525822
9.059929542,-4.34026948,1.969235228,-3.248259273,5.767756483
9.069970542,-6.517892457,4.461730767,-3.378958576,8.591118937
9.080011542,-8.140085496,7.064887787,-1.917372179,10.94760007
9.090051542,-9.365479463,9.523227986,1.32547608,13.42240529
9.100092542,-10.10983586,11.53690848,3.12923569,15.65570677
9.110132542,-9.110851933,13.63583671,3.789248343,16.83157951
9.120173542,-7.254409495,15.45153049,3.54550365,17.43407146
9.130214542,-4.707150688,16.90408995,2.827888906,17.77364567
9.140254542,-3.070282892,17.82845289,2.236850009,18.22865511
9.150295542,-2.217718212,18.30339765,1.897071816,18.53460335
9.160336542,-1.017067614,17.42761105,1.489102224,17.52065863
9.170376542,-0.286794818,15.1353002,0.745008949,15.15633867
9.180417542,-0.06727820948,12.62171785,0.3606328726,12.6270481
9.190458542,0.3950957769,10.66142477,0.05571928283,10.66888857
9.200498542,1.047661416,9.163599665,-0.04990423143,9.223429064
9.210539,1.698520399,7.913764921,0.06801948111,8.094274113
9.220579,2.003195125,7.022490796,0.2656986304,7.307445754
9.23062,2.066685801,6.705830739,0.3382795519,7.025225203
9.240661,1.823703146,6.91621999,-0.1300250826,7.153803089
9.250701,1.102209214,7.38043278,-1.03319482,7.533468305
9.260742,-0.0994264935,7.694697817,-1.876325895,7.920786513
9.270783,-1.206817802,7.774940327,-2.313987647,8.201258752
9.280823,-1.887708815,7.855495078,-2.375288687,8.421059544
9.290864,-2.221644325,8.085315796,-1.95141116,8.609067345
9.300905,-2.405538965,8.511438653,-1.171267462,8.922055432
9.310945,-2.579497431,8.948690516,-0.4173982634,9.322397238
9.320986,-2.773318889,9.252381449,0.09641938012,9.659562973
9.331027,-2.970616516,9.691523132,0.3412586717,10.14231929
9.341067,-3.371934316,10.12161566,0.7998184097,10.69844634
9.351108,-4.133278631,10.19370715,1.281236047,11.07416921
9.361148,-4.309404075,9.323673626,1.93937876,10.45289641
9.371189,-3.499218552,8.34224596,2.67909364,9.434783562
9.38123,-2.294366584,6.556462446,1.540096961,7.114999401
9.39127,-2.309760549,3.461454018,-0.4853984578,4.18954286
9.401311,-2.683645697,-1.276771113,0.9022031558,3.10581217
9.411352,-2.281254934,-12.20675265,5.000482693,13.38707442
9.421392,2.87528936,-44.13543863,10.54011141,45.46755086
9.431433,9.699913886,-90.44998953,13.87129824,92.02011655
9.441474,8.217271081,-66.92169655,-6.690304043,67.75542179
9.451514,5.60166417,-26.30709334,-26.72361156,37.9156065
9.461555,11.3469535,-13.05437087,-20.21634817,26.60583932
9.471596,19.30151152,-14.1318221,-4.3264835,24.30998154
9.481636,16.90548042,-21.65921412,7.078811762,28.37298716
9.491677,9.27160417,-23.1707755,12.03382709,27.70668648
9.501718,7.534437915,-17.13519764,10.85512314,21.63830981
9.511758,4.862238727,-9.23273305,4.972744671,11.55910527
9.521799,1.341073966,-3.032271897,-1.117036875,3.498703134
9.531839,-1.194182408,1.112331036,-3.536083785,3.894514154
9.54188,-3.617164201,3.62689046,-4.243284638,6.651591974
9.551921,-5.878155609,5.694779325,-4.265176613,9.229027927
9.561961,-7.858697013,7.967130119,-2.766417128,11.52767734
9.572002,-9.442218906,9.794186205,0.5431946762,13.6153091
9.582043,-9.176992713,11.79283761,3.796024096,15.41745806
9.592083,-6.973903942,13.91163467,4.963525951,16.33418211
9.602124,-4.744122047,15.39139421,6.377302004,17.32257748
9.612165,-2.883347408,16.65616918,5.45378107,17.76190845
9.622205,-1.568938645,17.62056566,3.581410232,18.04916624
9.632246,0.09014798552,17.53057701,2.61352998,17.72455347
9.642286,1.572089125,16.37713654,1.575644524,16.52769558
9.652327,1.99374661,14.81101011,0.2286086086,14.94634765
9.662368,1.814054217,13.3168021,-0.9310427928,13.47200251
9.672408,0.7504969995,11.5894387,-1.470200515,11.70640101
9.682449,-0.5188725615,9.866132101,-1.176032358,9.949514736
9.69249,-0.7951241188,8.464457445,-0.2350568998,8.504969956
9.70253,-0.6739139695,7.392798471,0.4320332229,7.436012506
9.712571,-0.3804781763,6.789876863,0.536413039,6.821651589
9.722612,-0.1626546291,6.53905587,0.04488907456,6.541232546
9.732652,-0.3222923872,6.750116966,-0.3236539114,6.765552696
9.742693,-0.808908345,7.153591803,-0.5787410331,7.222406079
9.752734,-1.560997834,7.523118875,-1.022945235,7.751157901
9.762774,-2.281004819,7.873997422,-1.290278181,8.298652673
9.772815,-2.763855463,8.365295684,-1.09203652,8.877477832
9.782855,-2.847775286,8.933245681,-0.7473642075,9.405915997
9.792896,-2.726055552,9.304672514,-0.506451906,9.709006282
9.802937,-2.558052183,9.696514315,0.07817550084,10.02856581
9.812977,-2.215229344,10.19431527,0.7986121291,10.46274754
9.823018,-2.002999097,10.2882274,1.440318319,10.57989344
9.833059,-1.405701633,9.5915451,2.07092357,9.91274225
9.843099,-0.1711776768,7.865659878,2.257652063,8.185041231
9.85314,0.580029467,5.610237358,1.725132101,5.898074106
9.863181,0.2269941741,2.799343969,1.066432148,3.004185503
9.873221,-0.4794269523,-1.89416575,2.442522311,3.127879366
9.883262,0.09359945074,-13.4288675,5.230009296,14.41167028
9.893303,4.236380246,-45.1910201,10.03832442,46.48594597
9.903343,8.119687484,-85.89077983,13.111987,87.26442338
9.913384,5.641856761,-63.7507936,-5.851177726,64.26686949
9.923425,5.748636274,-25.82714686,-24.49963478,36.05995616
9.933465,13.82039706,-12.64989441,-17.8528194,25.87945834
9.943506,20.78600731,-12.58272393,-3.030583806,24.48606705
9.953546,16.86555212,-19.29867445,5.862982085,26.29182844
9.963587,10.28971493,-20.78185111,8.407870431,24.66689794
9.973628,8.731753553,-15.20616378,8.04168972,19.29092301
9.983668,5.141215818,-8.185696701,5.345765455,11.04603725
9.993709,1.122415291,-2.354921665,1.227491949,2.883090116
10.00375,-1.670096791,1.566096021,-1.667038844,2.832119091
10.01379,-4.424424947,4.033716921,-3.317199115,6.844721928
10.023831,-7.084426843,5.911295874,-4.315797129,10.18619789
10.033872,-9.576489104,8.131135747,-3.796700034,13.12400256
10.043912,-11.75962542,9.904420838,-1.914901146,15.49364994
10.053953,-11.99736736,11.60795917,-0.3350571513,16.6971196
10.063994,-10.28815372,13.67920317,2.117516524,17.24675571
10.074034,-7.887010401,15.21744422,4.173167167,17.64060277
10.084075,-4.773877943,16.50590392,4.684474601,17.80952209
10.094115,-2.621696494,17.28656334,4.184791431,17.9780712
10.104156,-1.243216866,16.97489272,3.371796906,17.35112634
10.114197,-0.2081597078,15.68337025,2.036833134,15.81645099
10.124237,0.0406939166,13.84736441,0.6653406358,13.86339913
10.134278,0.01870663159,12.10498303,-0.2020704174,12.10668396
10.144319,0.1217703125,10.72512784,-0.3303758705,10.73090599
10.154359,0.1548838987,9.375140818,-0.3798889232,9.384112636
10.1644,0.3477276291,8.298232214,-0.02427470664,8.30555005
10.174441,0.7267020477,7.656078127,0.03131300013,7.690553209
10.184481,1.117059241,7.450439154,-0.3075576961,7.539990495
10.194522,1.384027905,7.61769291,-0.7723785961,7.780832039
10.204563,1.220070662,8.141668922,-1.50615329,8.369219975
10.21460325,0.6646429168,8.605504566,-2.023147725,8.865076749
10.22464425,-0.3525881271,8.508652455,-1.943008127,8.734801977
10.23468425,-1.240939229,8.194123124,-1.308811516,8.390266475
10.24472525,-1.769055946,8.240049495,-0.4229091911,8.438413761
10.25476625,-2.170338516,8.48248558,0.330981642,8.761990627
10.26480625,-2.441615847,8.874324458,0.8027174592,9.239019312
10.27484725,-2.712038607,9.202478387,1.085286494,9.654978438
10.28488825,-3.020655234,9.364292479,1.136282401,9.904820511
10.29492825,-3.287070166,9.215139363,0.7942067637,9.816027106
10.30496925,-2.499595229,8.595635635,1.203913051,9.032294001
10.31501025,-0.7630430777,7.369020769,2.16548942,7.718422524
10.32505025,-0.1995008585,3.334290526,0.9889044269,3.483565109
10.33509125,-1.406483698,-2.392561362,0.6794680935,2.857310475
10.34513225,-1.316276363,-11.8281887,3.850171067,12.50849506
10.35517225,2.219433346,-35.03164195,7.351661555,35.86347375
10.36521325,10.10727361,-71.26897509,8.999970013,72.54256165
10.37525325,11.3246604,-66.23571525,-5.148528346,67.39380722
10.38529425,8.08463518,-29.47868626,-19.77300058,36.40502467
10.39533525,11.45303252,-13.46666156,-14.52931348,22.88282932
10.40537525,14.69539078,-13.48502298,-0.6442438817,19.95533526
10.41541625,10.54890212,-21.84010358,4.463822901,24.6616134
10.42545725,8.047980155,-24.61560611,8.027918358,27.11356712
10.43549725,7.942524451,-20.42045108,9.863983834,24.02866401
10.44553825,5.121401943,-12.62554894,5.072588217,14.53837663
10.45557925,1.942543858,-6.086211237,-2.102205589,6.725675594
10.46561925,-0.8658165175,-1.613112313,-5.648499783,5.937787414
10.47566025,-3.710058331,1.146053098,-6.763155087,7.798604828
10.48570125,-5.974502521,2.970994831,-6.692549374,9.450487171
10.49574125,-7.618707402,5.382884749,-4.635700636,10.41680714
10.50578225,-8.785415205,8.610558314,0.1938960282,12.30296023
10.51582325,-8.72456791,11.23132832,3.817572255,14.72530743
10.52586325,-7.370462108,13.55485628,6.358602608,16.6880097
10.53590425,-5.461120495,15.97462591,7.354531953,18.41471287
10.54594425,-3.20296791,17.80763446,5.495026159,18.9094199
10.55598525,-1.525575547,19.4543858,3.480983133,19.82215304
10.56602625,-0.2279064129,19.92479196,1.738629813,20.00180266
10.57606625,0.6745681268,18.66556718,0.7072055304,18.6911364
10.58610725,0.5094857338,16.09419445,0.2110201657,16.10363935
10.59614825,-0.1334933951,13.32496715,-0.02896827579,13.32566731
10.60618825,-0.8661884004,10.95044094,0.06255936027,10.98482375
10.61622925,-1.44648757,9.020170389,0.3209080589,9.14104929
10.62627025,-1.49221382,7.228287059,0.7535312659,7.419073073
10.63631025,-0.9389178228,6.050608125,1.016361855,6.206804072
10.64635125,-0.1444000603,5.783919543,0.6643360841,5.823737553
10.65639225,0.6598496617,6.284911319,-0.0920649769,6.320125618
10.66643225,0.5751106431,6.88329198,-1.120198465,6.997521371
10.67647325,-0.04457449436,7.650803354,-1.769441131,7.852878502
10.68651325,-0.7193863039,8.03708036,-2.006867323,8.315028191
10.69655425,-1.436682667,8.134299676,-1.987035322,8.495834136
10.70659525,-1.98171991,8.487925245,-1.510748616,8.84615454
10.71663525,-2.257374613,9.052550515,-0.7083726346,9.356612782
10.72667625,-2.323395671,9.857240825,0.443865612,10.1370795
10.73671725,-2.087569424,10.69949599,1.305669222,10.97915901
10.74675725,-1.859174842,11.14546196,1.537062256,11.40352637
10.75679825,-1.668911561,11.00776704,1.314159964,11.21085267
10.76683925,-1.193290561,9.645047708,0.5981409983,9.736973878
10.77687925,-0.7581780481,7.578765657,0.08951736331,7.617121254
10.78692025,-0.7544272055,5.721299956,-0.1420996561,5.772575328
10.79696125,-1.414553294,3.129132194,-0.4198605259,3.459582658
10.80700125,-2.587453737,-1.68521082,0.6686051363,3.159412157
10.81704225,-3.573568531,-11.8832683,3.678339525,12.94266739
10.82708325,-1.946180826,-37.15479402,8.04232005,38.06501347
10.83712325,0.03624279678,-77.39132329,13.75771724,78.60466282
10.84716425,1.268544957,-71.69544293,2.097307377,71.73732949
10.85720525,6.759460816,-33.24526611,-19.57619968,39.16842636
10.86724525,15.03383113,-19.02219938,-17.08826438,29.66258464
10.87728625,21.48737381,-14.8044203,-5.062885348,26.58027279
10.88732725,17.87599309,-17.73805493,2.443905762,25.30143073
10.89736725,10.60001965,-20.03160188,4.220855888,23.05300663
10.90740825,8.695539408,-17.06719686,4.981128409,19.79174713
10.91744825,5.677725921,-11.37984643,3.748414897,13.25851012
10.92748925,1.516551686,-5.822012984,1.386720986,6.174039139
10.93753025,-1.808939219,-1.829339424,-2.486168268,3.577677526
10.94757025,-4.327203,1.192112786,-3.706023753,5.820689886
10.95761125,-6.098223757,4.065882454,-2.455512486,7.7297655
10.96765225,-7.37102344,7.143908229,0.2267889369,10.26736795
10.97769225,-7.672981258,10.01984254,0.8188464189,12.64683341
10.98773325,-7.506656039,12.58776423,0.08706273872,14.65637313
10.99777425,-6.64535942,14.88890789,1.215187068,16.34983362
11.00781425,-6.174612951,17.75152224,2.472151322,18.95663259
11.01785525,-6.620127515,20.46821581,3.893823456,21.86174302
11.02789625,-6.629294195,22.82389294,4.732910596,24.23382085
11.03793625,-4.451603975,22.60871774,4.303216259,23.44117245
11.04797725,-2.839786528,19.36066429,2.355368392,19.70907074
11.05801825,-1.696876308,16.2858615,1.736531832,16.46585002
11.06805825,-0.851704701,13.23748111,1.347330633,13.33310192
11.07809925,-0.5392391445,10.4527505,0.9368748057,10.50849686
11.08813925,0.1935542402,7.498540104,0.8192767739,7.545646518
11.09818025,1.571046712,5.046494433,1.452793939,5.481414421
11.10822125,2.843616162,3.631271778,2.197872469,5.109102758
11.11826125,3.954586844,3.014042033,1.971115692,5.348691761
11.12830225,4.051305053,3.664151841,0.3449167264,5.473394641
11.13834325,3.215803133,5.284308879,-1.775467272,6.435650251
11.14838325,1.61678451,6.606229852,-3.536428771,7.665676322
11.15842425,0.1713611332,7.370819957,-4.161580324,8.466233063
11.16846525,-0.7267198087,8.19403717,-3.794375181,9.059119705
11.17850525,-1.08349213,9.15327816,-2.726440884,9.611968381
11.18854625,-1.069099501,10.04399738,-1.431164503,10.20162188
11.19858725,-0.65898442,10.7297144,-0.09034006655,10.75031129
11.20862725,-0.413836834,11.11088035,1.190729334,11.18216256
11.21866792,-0.4551744559,11.76652747,2.343417853,12.0062467
11.22870792,-0.7942150229,12.09552808,3.170491889,12.52934938
11.23874892,-1.1988422,10.80439153,3.306269499,11.36237285
11.24878992,-0.9772691256,8.698686379,3.495612867,9.425577382
11.25882992,-1.3521445,5.214186146,2.882332331,6.109326606
11.26887092,-2.478512508,0.4247078311,2.290001199,3.401103716
11.27891192,-3.094554099,-6.526410096,4.432921536,8.474732277
11.28895192,-1.828963886,-23.77998286,7.030324895,24.86479765
11.29899292,2.740855732,-66.37848554,9.972211118,67.17931696
11.30903392,5.429408705,-88.73300377,0.9099717665,88.90361346
11.31907392,5.718485107,-45.64137265,-21.56371038,50.80186586
11.32911492,10.74510193,-17.50051764,-17.67963657,27.09787598
11.33915592,16.74679049,-10.55865878,-2.807600822,19.99557175
11.34919592,17.98193294,-12.31962613,8.369807396,23.34902088
11.35923692,11.8351387,-16.59730994,10.15973249,22.77633354
11.36927792,8.295658854,-15.11999921,9.007979529,19.45703027
11.37931792,6.540642804,-9.693203037,4.820373248,12.64809043
11.38935892,2.993424751,-4.122764753,-1.440052271,5.294481229
11.39939992,-0.4826611935,0.09613407254,-5.45415763,5.476316193
11.40943992,-3.426587656,2.759689322,-6.933064649,8.21125895
11.41948092,-6.239348645,4.84972744,-6.669248804,10.34060962
11.42952092,-8.294224532,7.124357479,-4.367341504,11.77388219
11.43956192,-9.049073761,9.950305109,-0.8624737374,13.47732053
11.44960292,-8.128927839,12.74723184,1.937163835,15.24217803
11.45964292,-6.373853316,15.02955097,4.516311017,16.93843185
11.46968392,-4.325612265,16.6616831,5.91784534,18.20284315
11.47972492,-2.903441364,17.97540862,4.925110914,18.86271466
11.48976492,-2.139423702,18.4958915,3.297160707,18.90889751
11.49980592,-1.373547794,17.5561808,1.725485272,17.69416336
11.50984692,-0.5424848608,15.0739594,0.3636243447,15.08810009
11.51988692,-0.6670651259,12.43283407,0.06262605507,12.4508739
11.52992792,-0.5640116776,10.48239238,0.1440157703,10.49854274
11.53996892,-0.1805953485,9.125849456,0.2063669515,9.1299688
11.55000892,0.08415195823,7.846819564,0.01750422478,7.847290311
11.56004992,0.674674473,6.938464553,-0.03910967748,6.9712987
11.57009092,1.28730341,6.600739317,-0.2810089982,6.730963947
11.58013092,1.597713962,6.676695818,-0.5831802392,6.889924248
11.59017192,1.583562385,7.135819775,-1.059241827,7.385769218
11.60021192,0.8804833809,8.033176174,-1.800300981,8.279387299
11.61025292,-0.5540912184,8.582126813,-2.164552111,8.868213098
11.62029392,-1.905214064,8.602371043,-1.903700219,9.014139045
11.63033392,-2.825440677,8.792380993,-1.186960219,9.311173563
11.64037492,-3.332971686,9.153103913,-0.3712806523,9.748120887
11.65041592,-3.518098627,9.545260295,0.4581708616,10.18326728
11.66045592,-3.350680271,9.969788032,1.240748756,10.5907124
11.67049692,-2.968720849,10.45846557,1.926824788,11.04108053
11.68053792,-2.89721291,10.46675458,2.197536839,11.0804315
11.69057792,-2.301708202,9.851428692,2.42114606,10.40242549
11.70061892,-1.01402677,9.011158075,3.008008876,9.553917393
11.71065992,-0.1804168622,7.020036135,3.184148061,7.710528935
11.72069992,-1.210160801,1.800872839,1.499071142,2.637204284
11.73074092,-3.066497989,-5.122963734,2.491189857,6.46948176
11.74078192,-3.880684177,-18.24200774,7.149409289,19.9735978
11.75082192,0.6240659445,-51.63327181,11.52476733,52.90750871
11.76086292,11.83135906,-93.10679592,13.37034739,94.80307323
11.77090392,20.18717992,-61.54322177,-11.10219958,65.71414775
11.78094392,16.41970427,-22.64310405,-25.95937346,38.16026624
11.79098492,17.96713948,-12.52490901,-19.48946793,29.31775583
11.80102492,21.57479436,-14.18783843,-7.868104599,26.99395452
11.81106592,17.98300181,-18.86550336,1.731049483,26.12072173
11.82110692,13.11189812,-18.73864802,6.041969449,23.65510931
11.83114692,10.20208388,-13.47466289,5.923271556,17.90905361
11.84118792,5.121980817,-6.89463324,3.184891827,9.160468926
11.85122892,0.2941033991,-1.871096145,0.6872384584,2.014893122
11.86126892,-3.712327928,1.370519521,-0.9131105518,4.06121574
11.87130992,-7.873284647,3.461435307,-1.971703337,8.823704413
11.88135092,-11.75383434,5.715734577,-2.695766391,13.34501404
11.89139092,-15.08043811,8.482489089,-2.09217703,17.42840898
11.90143192,-16.93432473,12.03597185,0.5801034343,20.78394795
11.91147292,-18.70709176,16.09121003,4.722316611,25.12334764
11.92151292,-20.40916595,19.98314951,7.993021005,29.66055806
11.93155392,-16.66773146,21.5174168,7.784176004,28.30911327
11.94159392,-9.376612562,19.92909317,4.24330101,22.42978425
11.95163492,-5.427055786,17.43010313,2.055600357,18.37081714
11.96167592,-4.162376715,14.71750144,1.584214203,15.37660441
11.97171592,-2.981144428,12.34210633,1.537225978,12.78975663
11.98175692,-1.664374998,10.23359101,1.048390564,10.42092376
11.99179792,-0.2463123514,8.524252242,0.7455094707,8.560334715
12.00183792,1.216727517,7.130325732,0.5253921338,7.252448399
12.01187892,2.676955898,6.326549342,0.5275779327,6.889822779
12.02191992,4.155051323,6.242352945,0.5296496012,7.517443081
12.03195992,5.09709039,6.396353402,-0.6457051009,8.204303893
12.04200092,5.439596894,7.030479262,-2.936614373,9.361653539
12.05204192,4.996265096,8.112149838,-5.385775028,10.94423193
12.06208192,4.00608678,8.834975621,-6.538284037,11.69849066
12.07212292,2.624747279,9.04974736,-6.120110469,11.23579004
12.08216392,-0.09980407745,8.82655563,-4.238330877,9.791909608
12.09220392,-2.058558171,8.52831021,-1.930832469,8.98319825
12.10224492,-3.204350191,8.337914928,0.3196397613,8.93816844
12.11228492,-3.906305507,8.372613475,2.426714948,9.552425061
12.12232592,-4.746517944,8.286664082,4.103843163,10.39421776
12.13236692,-5.945010334,7.856156398,4.664722706,10.90054949
12.14240692,-5.854957951,7.344477081,4.763574564,10.53154874
12.15244792,-3.751960356,6.050171923,4.562580035,8.455703601
12.16248892,-2.716451793,2.131767942,2.544058626,4.2890301
12.17252892,-2.941457914,-3.127044738,2.564765371,5.000860412
12.18256992,-3.114208345,-14.09800882,5.395580809,15.41312553
12.19261092,-0.9202706136,-41.20113274,8.726798623,42.12525669
12.20265092,6.29596665,-73.25869838,8.559658302,74.02529186
12.2126925,12.04797735,-57.46324987,-10.92459742,59.72039578
12.2227335,12.14314897,-27.85767903,-25.25943835,39.51639627
12.2327735,15.14674788,-15.61538584,-15.50789881,26.71627167
12.2428145,16.02253214,-13.03370915,-0.109428302,20.65456572
12.2528555,9.013427964,-16.34278181,5.934806943,19.58444113
12.2628955,4.535049589,-16.81309792,6.664680374,18.64577435
12.2729365,3.887321352,-13.67397693,6.56572502,15.6587885
12.2829775,2.229604139,-8.472955204,4.118827822,9.681262683
12.2930175,0.1804962382,-3.264442027,1.219788827,3.489562353
12.3030585,-1.653775604,0.6464418501,-0.2377197218,1.791471876
12.3130985,-3.557865541,3.580178223,-1.625069869,5.302540466
12.3231395,-5.222196246,6.054858466,-2.16538417,8.283811519
12.3331805,-6.464236068,8.657127879,-1.636804061,10.92754952
12.3432205,-6.920652764,11.04780878,-0.2279303133,13.03846102
12.3532615,-6.318181976,12.88442155,1.414563088,14.41973408
12.3633025,-5.140804174,14.67547165,3.623839967,15.96651345
12.3733425,-3.778687686,16.10473113,4.586584024,17.166176
12.3833835,-2.496028427,17.49648072,4.12462826,18.14854137
12.3934245,-1.75833683,18.33722146,3.161451509,18.69064512
12.4034645,-1.205166987,17.99610425,2.215236361,18.17194177
12.4135055,-1.156251373,16.33558622,0.9794074523,16.40571649
12.4235465,-1.821593032,14.32853998,-0.02190074623,14.4438824
12.4335865,-2.411833785,12.07017338,-0.034516114,12.30882688
12.4436275,-2.680698408,10.00310196,0.6748482084,10.37803511
12.4536685,-2.548148461,8.519420688,1.452116246,9.010118258
12.4637085,-2.067073471,7.363421475,1.447106352,7.783757791
12.4737495,-1.157726772,6.656988947,0.7292974806,6.796153907
12.4837895,-0.2722887531,6.658770009,-0.09818527579,6.665058105
12.4938305,0.347110894,7.094385821,-0.7600374627,7.143420265
12.5038715,0.6286170517,7.325532103,-1.519573234,7.507841421
12.5139115,0.4105093297,7.302779417,-2.239780633,7.649557007
12.5239525,-0.3226183695,7.48730234,-2.956022451,8.0561683
12.5339935,-1.327543656,7.975177642,-2.839951127,8.56919792
12.5440335,-2.315071575,8.458395637,-1.827399318,8.957868129
12.5540745,-2.966156845,8.802660983,-0.7067213809,9.315813541
12.5641155,-3.132394356,8.579453466,-0.2810523406,9.137718894
12.5741555,-2.722456883,7.338816977,-0.3876131681,7.837107251
12.5841965,-2.653507394,5.954108602,-0.1598290717,6.520587095
12.5942375,-2.556830407,4.717903132,0.6924038887,5.410676006
12.6042775,-2.596611646,2.47070823,1.353970731,3.831452458
12.6143185,-3.008157395,-2.298297814,2.293773238,4.426350576
12.6243595,-2.699438442,-13.54349631,5.594634647,14.90010728
12.6343995,-0.5750742441,-44.05131825,10.98151304,45.4031164
12.6444405,2.018372304,-81.53883287,14.58729681,82.85797681
12.6544815,5.775886638,-57.64578123,-1.66547179,57.95835364
12.6645215,8.581155006,-26.58498343,-22.93277979,36.14291015
12.6745625,18.53650977,-16.65044475,-18.78100641,31.20201447
12.6846025,26.04146135,-14.6178029,-5.444596848,30.35591385
12.6946435,19.37456078,-17.62338869,3.229576249,26.38915681
12.7046845,11.35378772,-18.30659374,5.451405931,22.22065923
12.7147245,8.874795159,-14.9657976,7.71956661,19.03493619
12.7247655,4.935731796,-9.517537476,6.97539849,12.7906666
12.7348065,0.1288891514,-4.05308056,2.707749674,4.876062216
12.7448465,-3.127384461,0.001868770123,-2.500858812,4.004351615
12.7548875,-6.090106067,2.896811206,-5.508180056,8.707522874
12.7649285,-8.995117993,5.524023671,-7.063604908,12.70124008
12.7749685,-11.09266511,7.991044647,-5.883725667,14.88362326
12.7850095,-12.03538596,9.749474886,-2.89382211,15.75680748
12.7950505,-10.85449983,11.47572205,0.6246429185,15.8083061
12.8050905,-8.278325368,13.51517006,5.918325981,16.91795127
12.8151315,-5.175579904,15.69522957,9.467353163,19.04619738
12.8251725,-2.769960541,17.606951,9.411240942,20.15561612
12.8352125,-1.132121376,19.09789042,6.294719439,20.14037264
12.8452535,0.133792334,19.61263952,3.559665606,19.93350819
12.8552935,0.9076102223,18.89284962,1.032765634,18.94281204
12.8653345,0.6643796459,17.12336522,-0.342466743,17.13967095
12.8753755,-0.2895133348,14.84812941,-1.215844295,14.90063899
12.8854155,-0.9579518254,12.43509109,-1.138948731,12.52383194
12.8954565,-1.469317878,10.20223707,0.05246589661,10.30763256
12.9054975,-1.463718145,8.245923023,1.423830341,8.494999126
12.9155375,-0.9448816904,6.372789708,1.889383897,6.713793382
12.9255785,-0.06467210546,5.022957636,1.337895566,5.198485398
12.9356195,0.5839212276,4.632365969,0.3490483689,4.682052246
12.9456595,1.074314194,5.077924971,-0.8801521361,5.26442217
12.9557005,1.189791149,5.530976011,-2.151581233,6.052817559
12.9657415,0.8683717507,5.964641776,-2.95598152,6.713333581
12.9757815,0.1687034275,6.68595313,-3.531322982,7.563112594
12.9858225,-0.6448911685,7.607315272,-3.276941035,8.308157005
12.9958635,-1.54965672,8.732929428,-1.815190331,9.053198788
13.0059035,-2.502515621,9.690485251,-0.2520430795,10.01157403
13.0159445,-3.187061729,10.56940246,1.119700282,11.09609659
13.0259855,-3.950226282,10.96601558,2.124211586,11.84778715
13.0360255,-4.905555485,10.4675194,2.599150507,11.84858727
13.0460665,-4.150766776,9.202249761,3.018148533,10.53657848
13.0561065,-2.428248235,7.080816187,2.191439363,7.79979191
13.0661475,-1.363536338,4.265305837,1.157292616,4.625082856
13.0761885,-0.9293330669,0.2687678522,2.006232315,2.227299758
13.0862285,-0.2542676345,-8.493464313,5.449020267,10.09432563
13.0962695,4.433226468,-35.42560395,11.12326008,37.39456949
13.1063105,12.90977391,-88.7168561,17.66272408,91.37458421
13.1163505,13.28481432,-81.45512881,-1.78658049,82.5506885
13.1263915,7.877899854,-33.41224856,-31.59661793,46.65603846
13.1364325,12.69099215,-15.11429349,-29.78257775,35.72821136
13.1464725,20.0097216,-9.753835155,-9.554496557,24.22425774
13.1565135,19.9106417,-12.55513677,5.347276375,24.13831968
13.1665545,12.91427042,-14.91915553,13.08778303,23.67804145
13.1765945,8.767972961,-12.27176433,16.55203144,22.39292956
13.1866355,4.495314835,-7.485935261,9.295614592,12.75364783
13.1966765,0.5305140755,-3.046953671,1.1616102,3.303741835
13.2067165,-2.949527948,0.4572557724,-1.246867282,3.234729661
13.216757,-6.399692747,2.979820619,-2.456512359,7.474613779
13.226798,-9.301379946,5.022032021,-3.433372765,11.11415868
13.236838,-11.34154833,7.252507396,-3.234963874,13.84538094
13.246879,-12.60673845,9.645196227,-1.298873588,15.92629075
13.256919,-12.39321451,11.79997472,-0.2062522729,17.11355337
13.26696,-10.99432546,13.74361376,1.2117864,17.64172718
13.277001,-9.001721839,14.99037345,2.924341067,17.72834067
13.287041,-6.110973026,15.80423453,3.634092475,17.32987157
13.297082,-3.281543963,16.05108176,3.630398204,16.78051094
13.307123,-1.051130715,16.08639894,3.476373188,16.49127882
13.317163,0.2937101738,15.9786792,3.104231826,16.28007094
13.327204,1.045230436,15.41847384,1.926187441,15.57344022
13.337245,1.770182704,14.29780935,0.1836154354,14.408144
13.347285,2.750611812,12.59916631,-0.8466335571,12.92368544
13.357326,3.485255109,10.4762797,-1.121459709,11.09761737
13.367367,3.767478574,8.256157989,-1.058596294,9.136666003
13.377407,3.344724298,6.35720337,-0.6003406477,7.208441177
13.387448,2.474510966,5.441510103,0.04682099462,5.977911753
13.397489,1.334524208,5.814205196,0.2211469402,5.969492683
13.407529,0.1402709028,6.875506997,-0.6718789923,6.909681163
13.41757,-1.206557162,7.672835662,-1.839347518,7.981941279
13.42761,-2.305890131,7.631560167,-2.670565476,8.407720252
13.437651,-3.108137766,7.393083816,-2.73797744,8.474357152
13.447692,-3.625199445,7.594060804,-1.920239654,8.63128906
13.457732,-4.172779789,8.03603137,-0.6068287182,9.075138149
13.467773,-4.57743664,8.720632149,0.6378938055,9.86961295
13.477814,-4.870721575,9.124068979,1.326355501,10.4274533
13.487854,-5.404621773,9.294402464,1.759077526,10.89450354
13.497895,-5.844624751,9.365770655,1.831228659,11.19065221
13.507936,-5.067761341,8.56440975,2.01932657,10.15426015
13.517976,-3.225266559,7.163140891,2.051993794,8.119335584
13.528017,-2.083106244,4.758412058,0.8649721795,5.26592763
13.538058,-2.055696982,1.04244453,0.07902566772,2.306257951
13.548098,-2.076904541,-6.038622503,2.143524939,6.73596269
13.558139,0.3927824722,-24.18490723,7.36382084,25.28418227
13.56818,6.961040068,-65.96443251,14.19015041,67.83157674
13.57822,9.342174801,-85.49539578,9.102850603,86.48468546
13.588261,6.944472567,-44.56296365,-19.1246005,48.98809828
13.598302,9.675578359,-18.03227513,-26.74676887,33.67743173
13.608342,19.69494727,-10.21952963,-11.51015513,24.99626782
13.618383,25.94063898,-13.07265161,7.685069792,30.04781636
13.628424,17.65690493,-19.22294014,12.35519006,28.87799233
13.638464,10.95856272,-19.48651508,11.27418958,25.03840485
13.648505,9.250224411,-14.27495609,9.514031485,19.48994146
13.658546,5.311185606,-7.872791142,4.819470438,10.64973372
13.668586,1.434395528,-2.705935283,-0.1596863083,3.066769637
13.678627,-1.69499175,0.9019283366,-3.510232075,4.001024991
13.688667,-4.898178053,3.502024924,-6.331109,8.737234573
13.698708,-6.981528711,5.611148354,-6.889002956,11.29978277
13.708749,-8.639371054,7.971299769,-5.825257019,13.11922145
13.718789,-9.898981758,9.744959081,-4.332564604,14.55077948
13.72883,-10.65294513,11.08401474,-1.662969182,15.46305562
13.738871,-10.0082861,12.6543991,0.9400030661,16.16116373
13.748911,-8.1415052,14.50454234,2.773015126,16.86284283
13.758952,-5.983309597,15.8988764,4.659933836,17.61502903
13.768993,-4.008827662,16.99175024,4.237823339,17.96522814
13.779033,-3.303156734,17.45174485,3.482339687,18.09974951
13.789074,-2.551626678,16.8317786,2.708013968,17.23812372
13.799115,-1.675245996,15.1036691,2.090909353,15.33946451
13.809155,-1.178845307,13.16145444,1.687057371,13.3214009
13.819196,-0.7486422627,11.21532332,1.093581355,11.2933548
13.829237,-0.2950082557,9.581667983,0.4685034764,9.597650062
13.839277,0.09420054451,8.275880647,0.06047247073,8.276637672
13.849318,0.8193023555,7.226054007,-0.05933926206,7.272594724
13.859358,1.720553877,6.709023319,-0.01775450388,6.926154399
13.869399,2.447493175,6.706311965,-0.2515940316,7.143398531
13.87944,2.656635069,7.10085518,-0.9225064427,7.637465045
13.88948,2.397535734,7.563060036,-2.153683891,8.221095365
13.899521,1.946574928,7.940859164,-3.243525367,8.795843053
13.909562,0.8709712766,8.090157875,-3.945943782,9.043213906
13.919602,-0.3496338214,8.262066016,-3.756158949,9.082549681
13.929643,-1.36250869,8.495049493,-2.888979446,9.075709231
13.939684,-2.280359433,8.715617577,-1.900722817,9.207321875
13.949724,-3.215716302,8.894727148,-0.6425779369,9.479974091
13.959765,-4.080930556,8.956205943,0.9479529405,9.887680914
13.969806,-4.685677958,8.51799806,2.681327276,10.08471045
13.979846,-4.130375488,7.545417232,4.129992496,9.542020797
13.989887,-2.548738738,6.562954025,4.399609948,8.302108309
13.999928,-1.9293464,4.067037864,2.796512747,5.29940167
14.009968,-2.336181047,0.1741768599,1.974453868,3.063747303
14.020009,-2.289065791,-6.359698377,3.931107057,7.819155218
14.03005,-1.131736045,-21.99371696,8.031096904,23.44147882
14.04009,1.575841721,-54.83715305,13.64595941,56.53148539
14.050131,2.5566661,-77.68222929,11.55406655,78.57837961
14.060172,4.298967673,-49.19874849,-11.19841785,50.63993027
14.070212,7.598030478,-20.72580437,-24.31832665,32.8431126
14.080253,16.39792807,-11.03037238,-14.54597103,24.53867219
14.090294,23.5447985,-10.84216922,3.087534517,26.10446397
14.100334,20.54403081,-16.02776774,8.593545256,27.43712013
14.110375,12.00716028,-16.01203522,6.31378487,20.98621093
14.120415,9.393750166,-11.09747736,4.272284489,15.15417305
14.130456,6.761933019,-6.119019964,1.662398493,9.269828058
14.140497,3.875252114,-1.763335469,-0.5815897965,4.297112707
14.150537,1.228854935,1.328356419,-2.104921621,2.775844062
14.160578,-1.433323587,3.517873217,-3.730815947,5.324362507
14.170619,-3.891771083,5.469924647,-5.224417604,8.506497346
14.180659,-5.668220687,7.046343927,-5.497265643,10.5829872
14.1907,-7.814538256,8.122469589,-5.144753968,12.38991581
14.200741,-9.607317379,9.083403348,-4.420306753,13.94087068
14.210781,-10.9196495,9.956673896,-1.567507539,14.86038964
14.22082179,-11.38858567,11.32826229,2.14543347,16.20593394
14.23086279,-10.41583235,13.80188945,5.445601984,18.12832857
14.24090279,-8.521776531,16.5628979,6.688201969,19.79096531
14.25094379,-6.308054599,18.25822557,5.899894388,20.19809664
14.26098479,-3.584912714,18.14103217,3.521153505,18.82411138
14.27102479,-1.178750436,16.59174806,1.415676398,16.69370229
14.28106579,-0.4037733373,14.86110321,-0.006491578817,14.86658884
14.29110679,-0.9426055156,13.26994602,-0.7401464045,13.32395547
14.30114679,-1.589418956,11.82736775,-0.7581663537,11.95774631
14.31118779,-2.187719949,10.63210332,-0.3829879475,10.86160298
14.32122879,-2.489840612,9.497104965,-0.1465686464,9.81915431
14.33126879,-2.189784308,8.60951751,-0.1782909608,8.885422598
14.34130979,-2.127185479,8.031412654,-0.6210666152,8.331520331
14.35134979,-2.457851956,7.48664219,-1.391183581,8.001639786
14.36139079,-2.592762132,6.957294341,-2.043678469,7.700842922
14.37143179,-2.540136899,6.472069582,-2.02175258,7.240681158
14.38147179,-2.331730585,5.758220446,-1.576933397,6.409429706
14.39151279,-1.669506953,5.065262825,-0.7568776274,5.386743423
14.40155379,-0.9374261981,5.14461305,0.0978519845,5.230237693
14.41159379,0.02213346541,6.108701967,0.7174669553,6.150730724
14.42163479,1.239129662,7.396058294,0.4460513377,7.512395251
14.43167579,2.183553515,8.237690143,-0.4923184548,8.536382273
14.44171579,2.92145225,7.811110033,-1.319420704,8.443292853
14.45175679,2.817779947,4.772798547,-2.60689339,6.124980241
14.46179779,1.643669569,1.132529073,-2.450853424,3.16084708
14.47183779,1.851434005,-5.452293538,0.7667593487,5.808892545
14.48187879,4.784056776,-23.08746437,4.759359891,24.05347619
14.49191979,10.58521216,-59.55484569,10.50365987,61.39342987
14.50195979,10.43055564,-77.51229049,8.014963267,78.62055268
14.51200079,4.136773512,-42.67037899,-8.539359108,43.71263882
14.52204179,5.573128588,-18.51984871,-13.50897669,23.59103664
14.53208179,11.09841409,-11.16259196,-2.843171189,15.99568307
14.54212279,13.51189094,-15.21464692,8.438379448,22.02868415
14.55216379,10.11922532,-19.24554197,12.27569015,24.96962506
14.56220379,8.812943897,-16.70087816,10.23017624,21.47658765
14.57224479,7.031440544,-10.82147943,2.954483464,13.23912934
14.58228579,3.763137601,-5.894191014,-2.280743887,7.355575096
14.59232579,0.2987000415,-2.578568893,-6.157254322,6.682067048
14.60236679,-2.771576126,-0.3629384297,-8.868503555,9.298586658
14.61240679,-4.945225335,1.816893625,-9.308635172,10.69612289
14.62244779,-6.573165017,4.180027705,-7.047494659,10.50458523
14.63248879,-7.974485332,7.071229092,-3.674554623,11.27373269
14.64252879,-8.074491431,9.730977804,-1.16965363,12.69871767
14.65256979,-6.877388046,11.85769726,0.841186291,13.73357364
14.66261079,-4.958973309,14.13479249,4.179564021,15.55160861
14.67265079,-3.678638903,16.85465291,8.10280014,19.0595666
14.68269179,-2.759037357,20.13361007,7.487705798,21.65733778
14.69273279,-2.64116743,22.74969177,3.828808265,23.22033621
14.70277279,-1.781577612,23.25609807,-0.03474708815,23.3242647
14.71281379,-0.4776646015,21.45839735,-2.354215322,21.5924364
14.72285479,-0.4762818812,18.48122435,-2.804203005,18.69882489
14.73289479,-2.077273208,14.92441452,-1.912841756,15.1892125
14.74293579,-3.237133775,11.68001909,-1.240536502,12.18362884
14.75297679,-3.342887102,9.226243225,-0.2573535025,9.816551791
14.76301679,-2.713123266,7.36887108,0.9031995213,7.904243685
14.77305779,-1.602279615,6.056785124,1.149694744,6.369752272
14.78309879,-0.5273049773,5.252284849,0.6982100277,5.324663737
14.79313879,-0.2834491874,4.637431412,-0.1603182279,4.648850984
14.80317979,-0.997418046,3.981207755,-1.211596878,4.279348658
14.81322079,-1.636131923,3.544207907,-1.832258939,4.312251173
14.82326079,-1.954385493,4.115805396,-2.00326076,4.97720106
14.83330179,-2.160906226,5.715343398,-1.824205568,6.376706974
14.84334279,-2.196647916,6.965346542,-1.727152314,7.504956338
14.85338279,-2.134010788,7.624647589,-1.490326631,8.056694506
14.86342379,-2.180480219,8.218106064,-0.6322711229,8.525932678
14.87346479,-2.584534515,8.758739623,0.6387802434,9.154418531
14.88350479,-2.770043571,8.977575177,1.70942531,9.549457175
14.89354579,-1.906423706,8.052401235,2.410338067,8.618894743
14.90358579,-0.6769668008,5.403136581,2.968559466,6.201976641
14.91362679,0.4060173525,2.086442081,5.443442023,5.843727552
14.92366779,2.128898714,-6.66986627,8.282263468,10.84505482
14.93370779,8.638642491,-36.53817239,10.88578477,39.09174459
14.94374879,20.7699415,-92.32270769,12.66752844,95.47428503
14.95378979,22.67084324,-83.63893756,-7.185074966,86.95438063
14.96382979,15.40604032,-31.77845464,-24.00492057,42.70190241
14.97387079,13.77259607,-11.38436515,-17.23282158,24.82455059
14.98391179,15.37315675,-3.061495696,-4.614234338,16.34006924
14.99395179,15.36694116,-3.101971292,2.23008478,15.83472085
15.00399279,10.60243572,-5.22546484,6.676015202,13.5752092
15.01403379,4.97344049,-4.471019654,9.639973494,11.73261335
15.02407379,-0.4965148553,-3.519205797,7.218674237,8.046153999
15.03411479,-4.5096066,-2.437207777,1.500396706,5.341135058
15.04415579,-8.149508284,-1.033583075,-1.859025738,8.422514822
15.05419579,-10.80735723,1.055113692,-2.70397822,11.19034108
15.06423679,-12.77027455,3.942630165,-2.642971296,13.62385929
15.07427779,-13.17038782,7.181594118,-4.254041176,15.59266737
15.08431779,-12.49940696,10.06079877,-6.180129215,17.19444222
15.09435879,-11.43816655,12.53791087,-4.163161411,17.47463236
15.10439979,-9.583875892,15.25065173,-0.2366052242,18.01357925
15.11443979,-7.54107509,18.42003674,6.069717411,20.80882112
15.12448079,-4.722425954,21.25584512,9.261449311,23.66192515
15.13452179,-1.862450013,22.59310802,7.109890298,23.75853089
15.14456179,0.265386115,21.71109997,2.217910293,21.82570544
15.15460279,1.375795025,19.04547364,-1.754611423,19.17554535
15.16464379,2.033252445,16.45259369,-2.476067203,16.76164859
15.17468379,2.234405434,14.00763426,-2.094582574,14.33853763
15.18472479,1.928713292,11.64981471,-1.86293694,11.95444067
15.19476479,1.313060249,9.813870857,-1.673916923,10.04182186
15.20480579,0.8535240622,8.480327373,-0.7702309138,8.557903443
15.214847,0.1937808198,7.536533557,0.1847790313,7.541288508
15.224887,-0.4597518025,6.679927574,-0.1836213191,6.698247599
15.234928,-0.9106243157,5.58356119,-1.439798502,5.837671791
15.244969,-1.516434741,4.404056756,-2.860507599,5.466058356
15.255009,-2.173454497,3.427772301,-3.860184424,5.601299062
15.26505,-2.865037729,3.00757969,-4.120665017,5.8509706
15.275091,-3.356264362,3.511425492,-3.302906765,5.8739946
15.285131,-3.458580696,4.566036909,-1.864256072,6.023779892
15.295172,-3.125671519,5.623432184,-0.005024000779,6.433726542
15.305213,-1.825549551,5.609898804,1.721492209,6.145496821
15.315253,-0.1412804246,3.776625373,2.730157374,4.662254675
15.325294,0.4245397237,0.8629689234,3.997160713,4.111233769
15.335335,1.188840976,-6.083425623,5.36469757,8.197645405
15.345375,4.101223318,-23.8142265,6.363286228,24.98857395
15.355416,9.4709913,-56.79155448,8.237417078,58.16214728
15.365457,12.61098236,-69.12870705,-0.647607858,70.27257225
15.375497,9.32170136,-40.24312961,-12.80110224,43.24663935
15.385538,13.36552578,-24.45394697,-9.13399989,29.32682656
15.395579,21.63118958,-18.66879835,2.453146702,28.67839471
15.405619,21.55467292,-16.62796338,9.503128767,28.83405187
15.41566,15.12174051,-15.27123276,14.03791816,25.66984091
15.425701,11.43190419,-11.87856246,9.87151037,19.21549886
15.435741,7.401699103,-9.499229259,-1.792023078,12.17505042
15.445782,0.3919999686,-8.152496211,-9.126682684,12.24390441
15.455823,-6.508439848,-6.868996707,-12.41135374,15.60719727
15.465863,-11.95054754,-3.808036616,-10.3586536,16.26709666
15.475904,-13.80270104,1.418729814,-5.285261976,14.84794075
15.485945,-12.16764881,5.882861449,-0.3239685646,13.51904922
15.495985,-9.603068792,9.462950209,3.73156556,13.98895773
15.506026,-7.568449999,12.34065388,6.433242316,15.84171015
15.516067,-8.171755185,14.54062083,7.491118233,18.28453142
15.526107,-8.711266664,16.83894963,6.025988424,19.89343932
15.536148,-7.491212958,18.74843508,5.622232336,20.95785261
15.546189,-4.766443793,19.51148036,4.997985932,20.69774663
15.556229,-2.723655855,19.06253815,4.366586044,19.745018
15.56627,-1.202868154,18.67675056,2.6109689,18.89669447
15.57631,0.2178731024,18.1228906,0.628948735,18.13510984
15.586351,1.833214081,17.30103169,-0.09489212394,17.39814289
15.596392,3.426327454,15.82628906,-0.1683261359,16.1938099
15.606432,4.462436526,13.46859114,0.1285825745,14.1891797
15.616473,4.167429294,10.8905444,0.2803049568,11.66404712
15.626514,3.177298048,8.498519815,-0.1385357964,9.074097977
15.636554,2.185451814,6.935501184,-1.366031199,7.398879479
15.646595,1.179347437,5.964395024,-2.466774223,6.56123795
15.656636,-0.1004958031,5.019150513,-3.06247452,5.880537515
15.666676,-1.544449629,4.359623179,-2.925394735,5.47262033
15.676717,-3.025369259,4.069187885,-2.273278162,5.556882471
15.686758,-4.289148736,4.268894858,-1.264783151,6.182227479
15.696798,-5.46690573,4.788293084,-0.3353319705,7.275112126
15.706839,-6.574460176,5.786885836,0.2723259012,8.762747039
15.71688,-7.041888934,7.166459185,0.9424191356,10.09130769
15.72692,-6.637515965,8.648025518,1.615237191,11.02061499
15.736961,-5.468927112,10.11852015,1.828452401,11.64632354
15.747002,-4.270459573,11.06367578,2.049156725,12.03498193
15.757042,-3.468221,11.19456921,2.449900328,11.97284212
15.767083,-2.387443294,10.72191538,2.99766749,11.38619187
15.777124,-1.080331272,9.681999772,2.531584761,10.06564239
15.787164,-0.3338347909,7.079667794,1.525823908,7.249915885
15.797205,-0.378225975,4.885879605,2.84001954,5.66397258
15.807246,0.0749431783,3.470854586,7.610824771,8.36523172
15.817286,0.9618450478,-10.67486634,11.8243693,15.95912362
15.827327,12.28676711,-93.60024479,10.28490735,94.96183333
15.837368,20.90355739,-131.9123712,-4.352338133,133.6292454
15.847408,8.098556231,-52.83545467,-31.27845456,61.9315235
15.857449,6.351185415,-21.14585665,-22.05203708,31.20540257
15.86749,14.24662984,-9.44857366,-3.38348666,17.4267033
15.87753,16.68656183,-7.324180811,10.58492564,21.07428816
15.887571,8.741074015,-9.392660245,13.13177982,18.35952294
15.897612,5.051769206,-6.29001243,9.543488588,12.49651163
15.907652,2.872727695,-2.053778949,1.687769562,3.913967102
15.917693,0.4831434426,1.734219843,-3.014311005,3.510985173
15.927734,-1.527809038,4.87732162,-3.738100408,6.332129287
15.937774,-3.223147236,7.140740792,-3.047484598,8.406308318
15.947815,-4.646325611,8.949317338,-1.857660413,10.25326898
15.957856,-5.449012665,10.30741679,-0.0001520641521,11.65909859
15.967896,-5.600957242,11.81119903,1.660286479,13.17693803
15.977937,-4.88991126,13.49030887,3.489408971,14.76738435
15.987977,-3.796697111,15.10037127,5.688423986,16.57692037
15.998018,-3.083354927,16.57128398,6.06839594,17.91479722
16.008059,-2.869169664,17.95949367,5.081373074,18.88374697
16.018099,-3.268208218,19.14623169,3.591425343,19.7524102
16.02814,-3.785685634,19.86662854,2.020443388,20.32477643
16.038181,-2.976325153,18.52884056,0.4731929068,18.77232952
16.048221,-1.381940595,15.30945367,-0.235925796,15.37350944
16.058262,-0.731153533,12.5263673,-0.2186227155,12.54959199
16.068303,0.12029506,10.62273257,0.2092402732,10.62547409
16.078343,0.7822454801,9.140067546,0.1967108595,9.17558924
16.088384,0.9885513282,8.162133007,-0.2405965519,8.225298515
16.098425,0.912235516,7.679446524,-1.090344336,7.809924669
16.108465,0.6281331946,7.189083232,-1.968431236,7.480119689
16.118506,0.2330121285,6.533712684,-2.414222957,6.969373614
16.128547,-0.4063904049,5.895944594,-2.602435473,6.457552648
16.138587,-1.553947261,5.441750423,-2.693218759,6.267441826
16.148628,-2.775509548,5.207089965,-2.754608091,6.511920215
16.158669,-3.851582877,5.254021472,-2.515893173,6.983491301
16.168709,-4.599863344,5.755582182,-1.986936504,7.631080245
16.17875,-4.785294339,6.498890761,-1.069094385,8.141104706
16.188791,-4.943248392,6.937200969,-0.08808949152,8.518698358
16.198831,-5.459970347,6.57660318,0.496518656,8.562097661
16.208872,-5.923345231,5.76057395,0.8199018413,8.303160241
16.21891292,-5.280567246,4.69852546,1.24780693,7.177572993
16.22895292,-3.830853913,2.905867374,2.112627082,5.251923465
16.23899392,-2.285556731,-0.7916662216,4.712957557,5.297402563
16.24903492,0.4748228547,-14.31380616,9.184354942,17.01360865
16.25907492,8.911770027,-57.70388852,15.08346346,60.30480301
16.26911592,19.290624,-104.4396635,16.54530831,107.4872956
16.27915692,24.07906327,-67.76197419,-17.37307875,73.98182411
16.28919692,18.83486863,-27.65955666,-34.91726106,48.36340011
16.29923792,15.5617505,-11.16556351,-22.20823493,29.32649972
16.30927892,15.30245338,-5.280364348,-2.571511889,16.39085113
16.31931892,10.64430763,-7.022377945,11.61362512,17.247938
16.32935992,4.454247501,-7.355721862,17.672165,19.65330457
16.33940092,0.2450052063,-4.462128963,14.35550967,15.03500184
16.34944092,-4.169502717,-1.280108703,1.742124109,4.696640034
16.35948192,-6.716909459,2.282329652,-2.328743681,7.466521844
16.36952292,-8.181514188,5.360843085,-3.406274428,10.35753438
16.37956292,-8.825071022,8.459468016,-4.257279364,12.94484087
16.38960392,-8.921848873,11.09173774,-2.456286657,14.44504682
16.39964492,-8.06346826,13.21942842,0.6135097468,15.49674812
16.40968492,-6.143066053,14.79213179,4.085692821,16.52989139
16.41972592,-3.109665936,15.57944418,6.083715645,17.01178119
16.42976692,-0.3360431381,16.45615113,6.748735853,17.78941457
16.43980692,0.4094578542,17.81254729,5.816150565,18.74252128
16.44984792,1.383504141,18.44540898,3.632807257,18.85058314
16.45988892,2.379442841,17.80108324,0.9436529712,17.98418176
16.46992892,1.957225339,15.56815671,-1.146830778,15.73256035
16.47996992,0.4730637199,13.16469614,-1.062860084,13.21600111
16.49000992,-0.665625249,11.03770713,-0.4165661315,11.06560269
16.50005092,-1.431671749,9.522645019,0.6562599099,9.652001306
16.51009192,-2.208126001,8.682879016,1.173891692,9.035830352
16.52013192,-2.645592018,8.270780706,0.2446568584,8.687049418
16.53017292,-2.612106476,8.084271483,-1.26821839,8.589931521
16.54021392,-2.022840308,7.987619348,-1.98227101,8.474865433
16.55025392,-1.493393788,7.864765254,-1.920710939,8.232489782
16.56029492,-1.116694082,7.61281107,-1.683014606,7.876194273
16.57033592,-0.6497564904,7.311626839,-1.368278868,7.466877366
16.58037592,-0.3357776745,7.355958674,-0.8228447449,7.409449921
16.59041692,-0.2512645045,7.831684631,-0.1066812801,7.836440449
16.60045792,-0.2774518445,8.522493399,0.4270712757,8.537696595
16.61049792,-0.4516007839,8.982614307,0.6421640271,9.0168552
16.62053892,-0.9471898788,8.955464516,0.5941513699,9.024994693
16.63057992,-1.322524698,8.496524745,0.4718650407,8.611774552
16.64061992,-1.332906429,7.606215996,0.1391391925,7.723374977
16.65066092,-1.214210583,6.052074607,-0.5374585211,6.196029055
16.66070192,-0.874824007,4.095258281,0.3798374677,4.204846481
16.67074192,-0.5021844618,0.3382269269,3.066754682,3.12595121
16.68078292,0.9919070452,-11.54919232,7.274658988,13.68533471
16.69082392,9.80219923,-52.52880797,12.00699305,54.76793458
16.70086392,16.81559468,-100.3563142,12.97337407,102.5790547
16.71090492,9.092113945,-59.64801756,-14.49425942,62.05349379
16.72094592,3.783172501,-22.15939664,-27.4386161,35.47152248
16.73098592,11.05031489,-11.66672369,-12.41731673,20.30792101
16.74102692,19.2415682,-10.82902351,4.828630686,22.60135773
16.75106792,15.98226588,-13.94541754,16.2346551,26.71088765
16.76110792,7.130585933,-13.82912227,17.58994262,23.48395111
16.77114892,3.968155892,-9.403657104,9.504410477,13.94664284
16.78118992,1.355682358,-4.160403864,1.191067303,4.534917451
16.79122992,-2.019740845,0.1742581362,-1.671849933,2.627698837
16.80127092,-5.260473874,2.907519797,-3.418675203,6.914737659
16.81131192,-7.862161489,4.862937469,-5.010185562,10.51492765
16.82135192,-9.430698722,6.900786849,-4.880944555,12.66422352
16.83139292,-9.828402357,9.130899696,-3.279116199,13.81026521
16.84143392,-8.780547398,11.16663355,-1.04195044,14.24350302
16.85147392,-6.871886401,13.05671678,1.167483363,14.80080042
16.86151492,-5.345032214,14.27916609,1.277534759,15.30019766
16.87155592,-3.286335171,15.72073863,3.43243721,16.42325325
16.88159592,-0.5684750766,17.21518989,5.729048102,18.15235299
16.89163692,1.955911031,17.82166778,5.65859617,18.80045587
16.90167792,3.301266621,17.40677742,2.815871708,17.93943686
16.91171792,3.838753794,16.0505216,-0.4199587957,16.50853233
16.92175892,3.602809287,14.5227529,-1.671709599,15.05606853
16.93179992,2.170472417,12.92784531,-1.644603077,13.21154246
16.94183992,0.1770786868,11.5760743,-1.314778014,11.65184511
16.95188092,-0.6514646083,10.50344469,-0.6509284186,10.54374053
16.96192192,-1.004499024,9.343765828,-0.4358233881,9.407705361
16.97196192,-1.150744027,8.018675079,-0.7858856642,8.13885607
16.98200292,-1.102200297,6.617445982,-1.020270134,6.785748887
16.99204392,-0.8519195862,5.339749839,-0.8919003618,5.480345024
17.00208392,-0.5365077639,4.483644962,-0.8323160648,4.591694977
17.01212492,-0.6848033854,4.639876717,-0.7092725211,4.743466996
17.02216592,-1.166215029,5.58942127,-0.517262823,5.73317089
17.03220592,-1.402623366,6.735438116,-0.3793755376,6.890384947
17.04224692,-1.727218972,7.933229717,-0.1551114285,8.120559012
17.05228792,-2.189404239,9.24634186,0.05053394001,9.502151461
17.06232792,-3.067233277,10.56291088,0.1082576529,10.99976026
17.07236892,-4.023860562,11.35308723,0.2049005063,12.04682645
17.08240992,-4.335634685,11.41009056,0.6479551095,12.22324591
17.09244992,-3.496185894,9.200965712,0.7853167301,9.874097843
17.10249092,-2.363456554,5.414941524,0.4424646556,5.924803251
17.11253192,-1.430387993,1.575195458,1.625757501,2.67774868
17.12257192,-0.3822902285,-6.828595371,5.310408511,8.658885558
17.13261292,5.090595303,-35.93729146,10.64982389,37.82620555
17.14265392,16.74857974,-93.31070003,16.44342525,96.21739914
17.15269392,16.10837512,-74.89197072,-2.738536434,76.65367968
17.16273492,7.785629622,-27.2172031,-25.07838283,37.81953805
17.17277592,13.60571887,-14.51075442,-17.9536102,26.79570299
17.18281592,21.99155816,-13.95138053,0.1987725878,26.04436906
17.19285692,18.59183145,-17.04364896,12.76869697,28.26980348
17.20289792,9.760120912,-16.8605586,16.55252728,25.56412635
17.21293792,5.107981998,-12.95379292,12.2039413,18.51562622
17.22297938,1.305313857,-7.824823508,2.401262019,8.288411578
17.23302038,-1.839899349,-3.404095171,-2.199728376,4.451055883
17.24306038,-4.731896689,-0.1144323492,-4.403538108,6.464912134
17.25310137,-6.944881872,2.790410008,-5.833609182,9.489402948
17.26314237,-8.310867462,5.6011081,-5.38250585,11.37604057
17.27318238,-8.937390772,8.740479353,-3.193914081,12.90248117
17.28322338,-8.903486862,11.32247939,-1.954359326,14.53582259
17.29326438,-7.853450891,12.99651501,-0.8141452575,15.20687101
17.30330438,-6.866060236,14.55770054,1.883154273,16.20542188
17.31334538,-6.122176875,15.91157187,4.516174192,17.63675136
17.32338537,-3.121786629,17.7161957,4.425806644,18.52557439
17.33342638,0.6175286843,19.23007725,4.553236184,19.77142313
17.34346738,2.649039536,19.43611208,2.251113707,19.74455308
17.35350738,3.64418857,18.1058331,-1.204572033,18.50816837
17.36354837,4.21338607,15.62669786,-2.311373942,16.3489681
17.37358937,3.23971766,12.98594091,-1.797428244,13.50411715
17.38362938,0.800346998,11.20260329,-1.227226485,11.29800693
17.39367038,-0.7079475421,10.09032254,-1.27629398,10.19532858
17.40371138,-1.167119155,8.913060508,-1.037815289,9.048860443
17.41375138,-1.457521705,7.5913705,-0.7843472618,7.769715324
17.42379238,-1.631367174,6.215154036,-0.9953060317,6.502317483
17.43383338,-1.9870017,4.780690534,-1.800446577,5.481312399
17.44387337,-2.354817292,3.54122992,-2.187230537,4.782201506
17.45391438,-2.999076084,3.206530618,-1.934961773,4.797955088
17.46395538,-3.883977914,3.94174782,-1.286166419,5.681274889
17.47399538,-4.131441436,5.384544189,-0.5027015018,6.805500221
17.48403637,-3.910393295,7.149547868,0.2547351011,8.153042403
17.49407737,-3.77771968,8.98407962,0.5555544476,9.761838625
17.50411738,-4.076352478,10.86750053,0.8070555085,11.63488529
17.51415838,-4.195440381,12.43043788,0.8854497135,13.14920253
17.52419938,-3.416579854,13.2501415,0.8913366902,13.71253984
17.53423938,-1.991786915,12.6843462,1.283114172,12.90372953
17.54428038,-0.3538408931,10.81259634,1.687658465,10.94922984
17.55432138,0.8557752402,8.096536018,1.997980725,8.383207843
17.56436137,1.04499187,3.248282661,0.9890249527,3.552677668
17.57440238,1.735173963,-4.004391965,2.253206425,4.911509227
17.58444338,6.708177812,-27.02176108,5.941133046,28.46879491
17.59448338,19.14689593,-82.78028563,9.604939901,85.50692477
17.60452437,19.92754015,-83.77754931,-2.91696422,86.16433895
17.61456537,9.44343922,-31.83419966,-20.12058715,38.82567243
17.62460538,13.45563254,-11.94848581,-14.87125164,23.34468859
17.63464638,19.74301138,-10.02102017,2.999225773,22.34284447
17.64468738,15.26882605,-15.84320155,12.02282497,25.07373934
17.65472738,7.352934494,-17.73351281,12.5024557,22.90970364
17.66476838,4.028042198,-14.9359885,8.414162035,17.60985517
17.67480938,0.4322407991,-10.35204391,0.3504212952,10.366988
17.68484938,-3.428523084,-5.972422666,-2.725909957,7.406428838
17.69489038,-6.988633078,-2.460965599,-4.421137642,8.628082176
17.70493138,-9.619788905,0.80693681,-5.614348535,11.1674704
17.71497137,-10.98194925,4.367618662,-4.647666378,12.69961042
17.72501237,-10.76747455,7.951939638,-2.094228233,13.5483447
17.73505337,-9.244706978,11.42319768,1.310750452,14.75371544
17.74509338,-7.417086636,14.2385104,4.400168942,16.64661645
17.75513438,-4.748163643,16.45324624,5.509603268,17.98916612
17.76517538,-1.987587006,17.80407233,4.71286868,18.52421726
17.77521538,-0.1752590333,18.29040163,2.547007377,18.46772195
17.78525638,0.9384940459,17.90434624,0.5277123821,17.93669049
17.79529738,1.728699633,16.6675771,-1.301937529,16.80748553
17.80533738,2.002746644,15.21627595,-2.156870624,15.49832697
17.81537838,1.138883827,13.73205381,-2.684523364,14.03826998
17.82541938,-0.5331428374,12.15197476,-2.433224069,12.40464877
17.83545937,-1.931281536,10.60288361,-1.625421871,10.89921949
17.84550037,-2.484021755,9.175071902,-0.529717977,9.520131807
17.85554138,-2.720325281,7.900229201,0.1482444402,8.356779732
17.86558138,-2.733179215,6.553122516,0.1237294221,7.10133736
17.87562238,-1.453668536,5.541201037,1.171442878,5.847250598
17.88566338,-3.428402047,4.76945277,-0.9179567242,5.945104277
17.89570338,-2.763311672,4.004580245,-1.307108806,5.037964645
17.90574438,-2.300060457,4.561196584,-0.02339935105,5.108359806
17.91578538,-2.731151986,5.888512198,-0.2967812411,6.49783396
17.92582538,-2.72157717,7.151358751,-0.4559226437,7.665297107
17.93586638,-2.574596587,8.311072699,-0.4715463309,8.713485694
17.94590738,-2.533506156,9.484107774,-0.4007599747,9.824844135
17.95594737,-2.706077955,10.39713062,-0.173031975,10.7449115
17.96598837,-3.043496212,11.06675843,0.09449513454,11.4780199
17.97602938,-3.11080205,11.21031459,0.3221499709,11.63838577
17.98606938,-2.175933716,10.66389931,1.027096174,10.93198804
17.99611038,-0.9701495558,8.447391762,0.4947007932,8.517296907
18.00615137,-0.5507471958,5.12380281,-0.5528133094,5.182883393
18.01619138,-0.0434231776,1.210938481,0.7882479393,1.445542248
18.02623238,0.8850138035,-6.943007255,3.89942041,8.012120737
18.03627338,6.569937354,-30.81839563,7.177059603,32.31791717
18.04631338,17.59514079,-77.22093075,10.07970867,79.83897327
18.05635438,16.13324216,-68.02849028,-1.929389961,69.94197264
18.06639538,9.049770749,-27.24757587,-14.22081438,32.03997977
18.07643537,14.05415236,-15.42071917,-9.072959636,22.75162357
18.08647637,18.64808166,-14.09806028,2.301896775,23.49052962
18.09651738,14.81906524,-17.15359064,13.23706947,26.25014999
18.10655738,9.155054544,-17.22862796,11.52885453,22.66175483
18.11659838,4.444858042,-15.15111107,4.947610999,16.54665478
18.12663937,-0.2535890651,-12.10566247,0.001867564134,12.10831841
18.13667938,-3.409887715,-8.603650414,-4.892530228,10.46838033
18.14672038,-4.986585031,-4.692620941,-8.269064548,10.73611429
18.15676138,-6.167423215,-0.7673792267,-8.577694623,10.59258349
18.16680138,-6.78556688,3.022377824,-6.58737726,9.928354584
18.17684238,-6.276588392,6.754876599,-3.360342211,9.814062334
18.18688338,-6.109753296,9.966380274,3.968523974,12.34532315
18.19692337,-25.24183122,5.607692649,1.268300836,25.88831487
18.20696438,-2.738244658,14.01525201,6.001771595,15.49020771
18.217005,13.15112007,23.13006952,6.973049079,27.50591734
18.227045,3.760316904,23.87333951,0.2015430168,24.16851138
18.237086,-1.264773942,23.57776978,0.6857193518,23.62162339
18.247127,-3.466566823,21.15057652,1.117580667,21.46189552
18.257167,-3.836387133,17.38402006,0.6275547588,17.8133614
18.267208,-3.774385013,14.05869448,-0.4339253819,14.56300669
18.277249,-3.089511461,11.52251381,-1.440941048,12.01622722
18.287289,-2.191258391,9.259136152,-1.949124899,9.71248184
18.29733,-1.039623833,7.070191212,-1.833109708,7.377581764
18.307371,0.3050407621,5.034034601,-1.379770986,5.228606143
18.317411,1.491588753,3.235345112,-1.293536249,3.790188785
18.327452,2.113650491,1.902431958,-1.855375321,3.395465113
18.337493,1.931650495,1.184148878,-2.987817271,3.74973789
18.347533,0.1263131605,2.005111404,-3.598040298,4.120961143
18.357574,-1.743758698,3.491340891,-2.828642027,4.819893291
18.367615,-2.968594549,5.248147359,-1.124309715,6.13348813
18.377655,-3.377647045,7.488504528,0.4012838852,8.224793516
18.387696,-3.257422152,9.524473443,0.96815222,10.11255221
18.397737,-2.875822918,11.11995406,0.8465885335,11.51696349
18.407777,-2.679900263,11.83734661,0.1131904006,12.1374401
18.417818,-2.728992901,12.04109752,-0.6064381242,12.3613591
18.427859,-2.524502614,12.14297005,-0.2592783328,12.40532387
18.437899,-2.36469821,11.89150586,0.5043205959,12.13482792
18.44794,-2.186377136,11.40919711,1.211516186,11.67980287
18.457981,-1.513111184,9.806540787,1.086258229,9.981868793
18.468021,-1.119255601,5.859279043,-0.4747564888,5.984085371
18.478062,-0.7308735976,1.087421898,0.4237582799,1.377038009
18.488103,0.4074621995,-6.755190595,3.961017904,7.841446821
18.498143,3.7723686,-25.822993,6.682958186,26.93918451
18.508184,11.21587646,-70.64951639,10.239554,72.2633968
18.518225,13.25692661,-78.18378941,2.621944124,79.34308805
18.528265,10.03640653,-31.11063479,-13.93165671,35.53437929
18.538306,16.40513535,-9.733263481,-11.5002137,22.27374685
18.548347,20.98894779,-6.518575412,-0.5347296256,21.98439652
18.558387,15.24188792,-12.90346593,5.540395875,20.72463672
18.568428,9.789121932,-16.29295184,4.969435147,19.64643666
18.578469,5.453385798,-14.71360836,3.255956547,16.02594586
18.588509,1.291123688,-11.46232959,1.456205789,11.6263724
18.59855,-1.769269808,-7.699377928,0.167284162,7.901817521
18.608591,-4.281699383,-4.151244201,-1.702348425,6.201916493
18.618631,-6.444570712,-0.7058723652,-3.733242542,7.481166174
18.628672,-8.316864367,2.420156127,-3.512567453,9.346952374
18.638713,-9.519164171,5.213846422,-1.446155595,10.94943136
18.648753,-9.690893387,7.742401156,1.677594237,12.5168891
18.658794,-9.031196483,10.08909696,4.545676904,14.28340176
18.668835,-7.798402864,12.36503443,6.172017957,15.86830077
18.678875,-6.318315293,13.82302362,5.273631279,16.0875193
18.688916,-4.309713686,14.79444261,3.255368902,15.74949494
18.698957,-1.972333375,15.30152017,0.8509604967,15.45156148
18.708997,-1.049760859,15.45383312,-0.4978091365,15.49744398
18.719038,-0.7310031134,14.8893207,-1.11597736,14.94896792
18.729079,-0.4968161331,13.81218289,-1.735574643,13.9296605
18.739119,-0.3232966465,12.67831422,-2.125148309,12.85925454
18.74916,-0.2901195449,11.72991689,-2.300127407,11.95682674
18.759201,-0.111625101,10.8883669,-2.270541666,11.12314494
18.769241,0.0726127705,10.08507641,-1.764370426,10.2385078
18.779282,0.09268363059,9.29996609,-0.9477465338,9.348592569
18.789323,-0.05222411424,8.586031584,-0.1378843617,8.587297468
18.799363,-0.4156142414,7.922841554,0.238956481,7.937332907
18.809404,-0.9094493178,7.433091635,0.2434488968,7.492477339
18.819445,-1.529872228,7.285522529,0.2873649216,7.449961487
18.829485,-2.127190888,7.423792807,0.4058242116,7.733196882
18.839526,-2.442848147,7.778752711,0.4331254463,8.164808538
18.849567,-2.515660746,8.380459853,0.3517427659,8.756961763
18.859607,-2.453067765,9.219945189,0.2489900838,9.54394713
18.869648,-2.30566589,10.14428415,0.2146822768,10.40522391
18.879689,-1.835767853,10.60503773,0.09245610081,10.76315088
18.889729,-0.5989725454,9.776634618,0.2996013167,9.799546597
18.89977,0.7007586828,8.305463465,0.9924830691,8.393855416
18.909811,1.953616876,6.171545502,1.298653733,6.602355208
18.919851,2.930543209,2.172242954,1.747276676,4.044712441
18.929892,4.764208695,-6.252817122,3.426122217,8.575180458
18.939933,10.69229806,-32.6128874,5.984345723,34.83874361
18.949974,20.86226435,-82.52429921,9.189671815,85.61509273
18.960014,13.00006427,-62.16442061,-7.477331668,63.94784867
18.970055,1.006192378,-19.29988716,-18.77105095,26.94161133
18.980096,5.78721328,-6.912829775,-8.262121564,12.22872462
18.990136,11.29047173,-8.076499364,7.799141368,15.92266309
19.000177,10.09482255,-16.05461816,18.62110378,26.57821876
19.010218,6.661785418,-19.38731239,18.02008251,27.2941503
19.020258,6.02960902,-16.9018645,8.192589984,19.72682791
19.030299,3.662980936,-13.12545197,0.830564239,13.65228024
19.04034,0.6561436965,-9.697804211,-2.06605284,9.937127623
19.05038,-1.971082655,-6.64921215,-4.786436593,8.426574886
19.060421,-4.570059793,-3.934883189,-8.567008252,10.47675439
19.070462,-6.476539779,-1.253966387,-11.16086703,12.96468095
19.080502,-7.701541983,1.741458696,-9.745356692,12.54266337
19.090543,-7.981132447,4.827296936,-5.155368419,10.65734931
19.100584,-7.393748059,7.66192008,-0.2146115255,10.64981633
19.110624,-5.537943553,10.75434521,4.782912476,13.00772891
19.120665,-2.914184746,13.7339027,8.31118789,16.31528119
19.130706,-0.8351389544,16.08614517,7.27769954,17.67558865
19.140746,0.4140944038,18.01934577,3.037448437,18.27824907
19.150787,0.4814568132,19.90228018,-0.2288085651,19.90941763
19.160828,-0.8474167916,20.97743111,-1.84332304,21.07530714
19.170868,-2.075302843,21.07382597,-2.29816859,21.30010802
19.180909,-2.847263363,19.58562422,-3.085495008,20.03057324
19.19095,-4.05248239,16.44391408,-3.629859091,17.32053119
19.20099,-4.67994067,13.72914073,-3.551306427,14.93328253
19.211031,-4.877521595,11.43682637,-2.790113554,12.74268214
19.22107175,-4.683256918,9.145404884,-1.674505153,10.4103455
19.23111175,-3.886698623,6.798207391,-0.7272199649,7.864534239
19.24115275,-2.448084475,4.317670577,-0.1031939276,4.964478401
19.25119375,-0.9234364423,2.500155977,0.1689084455,2.670588856
19.26123375,-0.2929164143,1.411444768,-0.3410985311,1.481325274
19.27127475,-0.4491790134,0.6377154654,-0.7660513971,1.093287494
19.28131575,-1.398487631,1.517653593,-0.08089739799,2.065329144
19.29135575,-1.844792738,3.867410413,0.6607154151,4.335512473
19.30139675,-1.75816156,6.468563592,1.042168542,6.78377198
19.31143775,-1.556138213,8.67306505,0.9814154593,8.866047586
19.32147775,-1.002915598,10.03817824,0.3000954795,10.09261707
19.33151875,-0.3660395005,10.84978931,-0.7551375691,10.88219398
19.34155975,0.01592343003,11.69380565,-0.8261811662,11.72296547
19.35159975,0.2512664048,12.46348985,0.5602637585,12.47860607
19.36164075,0.7286379147,11.08435621,1.589686612,11.2214513
19.37168175,1.754760088,5.096574665,0.4142026504,5.406091021
19.38172175,2.217328202,-3.088854818,-0.1574310189,3.805568679
19.39176275,3.038930414,-15.6825797,2.844045932,16.22550466
19.40180375,8.916033232,-47.22672122,6.971684339,48.56401165
19.41184375,18.0832722,-85.95126343,5.79316633,88.0237763
19.42188475,9.512671423,-54.30991196,-7.349917331,55.62444372
19.43192575,7.087890149,-18.72091575,-11.95635265,23.31663016
19.44196575,13.63873225,-12.72818161,-0.3875692775,18.65936318
19.45200675,13.06510519,-17.06959071,10.13928712,23.76705796
19.46204775,6.296661299,-19.445905,10.1259543,22.81065793
19.47208775,4.425463412,-16.10336756,7.077403752,18.13815914
19.48212875,3.291935635,-10.81695836,2.253347343,11.52913712
19.49216975,2.149182412,-5.87945603,-1.824250007,6.520343269
19.50220975,0.448099325,-1.710467284,-3.715423737,4.114713219
19.51225075,-1.522709973,1.414504616,-4.657037126,5.099751343
19.52229175,-3.571789808,4.009253924,-4.714298909,7.145377083
19.53233175,-5.630276935,6.455700302,-3.810749724,9.375387897
19.54237275,-7.663629806,8.818149673,-3.000171268,12.06200701
19.55241375,-8.483177891,11.0847433,-2.156888165,14.12402236
19.56245375,-7.986826465,13.22475055,2.25906709,15.61367376
19.57249475,-6.062207832,15.04106881,9.316855187,18.70261761
19.58253575,-2.926821164,17.24719989,8.791873455,19.57879529
19.59257575,-2.428532117,18.74042791,3.484984968,19.21578847
19.60261675,-0.8595299567,19.42237581,1.309309845,19.48542445
19.61265775,1.475324576,17.69703321,0.3727530177,17.76233407
19.62269775,1.455656443,15.08460484,-0.5316908276,15.16400125
19.63273875,0.1668669632,13.09566625,-0.9701653433,13.1326136
19.64277975,-1.13367235,11.51656602,-1.012983334,11.61648144
19.65281975,-2.482038379,10.36981009,-0.1633208827,10.663965
19.66286075,-3.153558937,9.448487121,0.7620804799,9.989975451
19.67290175,-3.252592644,8.638227339,0.7330420375,9.259356408
19.68294175,-3.01269425,7.980978665,0.09391213973,8.531187876
19.69298275,-2.260471006,7.619178103,-0.5139304948,7.964027165
19.70302375,-1.461195949,7.398711761,-1.079505937,7.618488196
19.71306375,-1.251331485,6.995221721,-1.462339518,7.255163284
19.72310475,-1.488426578,6.68145779,-1.486055825,7.004687987
19.73314575,-1.888311079,6.918660618,-1.284012889,7.285758202
19.74318675,-2.183446073,7.584350917,-0.9918304467,7.954466872
19.75322675,-2.297943911,8.475215153,-0.5179498708,8.796481693
19.76326775,-2.381246561,9.440827269,-0.03128437618,9.736556548
19.77330875,-2.185784521,10.14346788,0.04181691092,10.37638392
19.78334875,-1.481852115,10.21515123,0.3438051707,10.32779756
19.79338975,-0.304785385,8.976691663,0.7574576712,9.013746694
19.80343075,0.6972104461,7.567728453,1.146977543,7.685842428
19.81347075,0.9955122922,5.581020575,0.7675651681,5.720838371
19.82351175,1.001360093,2.421494554,0.7865849912,2.735886302
19.83355275,1.699770826,-4.762005756,2.78159533,5.770891809
19.84359275,6.324716824,-28.07498496,5.681858148,29.33411555
19.85363375,15.35991163,-79.65631946,10.37225305,81.7841045
19.86367475,12.87179624,-78.02966148,-4.50541707,79.21243585
