Time (s),Linear Acceleration x (m/s^2),Linear Acceleration y (m/s^2),Linear Acceleration z (m/s^2),Absolute acceleration (m/s^2)
0.004628041672,0.1417534826,-0.0183047086,-0.05493137509,0.1531227225
0.01464204167,0.003557446003,-0.1031647646,-0.08771525145,0.1354606564
0.02465704168,0.02568974197,-0.1062333834,-0.00251781106,0.1093244436
0.03467204167,-0.005775879622,-0.006653546691,0.1136640251,0.1140050046
0.04468704168,-0.003448687792,0.08049803317,0.2253475982,0.2393185467
0.05470204167,0.03167497018,0.09874193072,0.2295894608,0.2519217996
0.06471704168,0.08682239989,0.04481773853,0.04615879744,0.1080619886
0.07473204167,0.01367227027,-0.06356157303,-0.03495494753,0.07381634573
0.08474704168,-0.119758852,-0.03356594145,0.1030025044,0.1614879902
0.09476104168,-0.02876652857,0.1193252993,0.1104191127,0.1651012437
0.1047760417,-0.01868505171,-0.03729178727,-0.03228510886,0.05274596486
0.1147910417,-0.01462328335,-0.09543123722,0.04740016133,0.1075534135
0.1248060417,0.07563696871,-0.09617617249,0.1597029546,0.2011860852
0.1348210417,0.10733266,-0.0403212297,0.2108424103,0.2400012989
0.1448360417,0.1434786853,-0.01331586421,0.1190042871,0.186883562
0.1548510417,0.1058196929,-0.0100104332,0.05479776621,0.1195859999
0.1648660417,0.04822608054,-0.01397835374,0.1540273547,0.1620048617
0.1748800417,-0.03419976136,-0.02920157969,0.05785088986,0.0732740158
0.1848950417,0.01263290942,0.04479084134,-0.008735740185,0.0473510615
0.1949100417,0.05671974599,0.05910891831,0.07611203671,0.1118214467
0.2049250417,0.01279516965,-0.004977734685,0.0751899308,0.07643310737
0.2149400417,-0.02096429637,-0.02428407133,-0.0354531303,0.04781362035
0.2249550417,0.03006640116,-0.03553411424,-0.05583535463,0.0726928372
0.2349700417,0.07509551654,-0.01402045369,-0.06227372378,0.09855925324
0.2449850417,0.04056973636,-0.0207260406,0.01650142729,0.04845378592
0.2549990417,0.1894889635,0.005321550965,0.3621701056,0.408780591
0.2650140417,0.01774777958,0.00119926393,0.5026482922,0.5029629485
0.2750290417,-0.04146523744,0.03191761136,0.2676358312,0.272703205
0.2850440417,0.04712828407,0.09522249162,0.2304571876,0.2537694099
0.2950590417,-0.03157611569,0.1091569912,0.2782458964,0.3005546185
0.3050740417,-0.09920095542,0.1659100664,0.6211011869,0.6504872512
0.3150890417,0.05313891113,0.1592723072,1.212634174,1.224203027
0.3251040417,-0.02816309592,0.1621473831,1.758242252,1.76592773
0.3351180417,-0.09103937527,0.5512795848,2.12364996,2.195924977
0.3451330417,0.1375867567,0.5228732264,2.385262575,2.445772695
0.3551480417,-0.3604311436,-0.1671789122,1.896406403,1.937580099
0.3651630417,-1.822734994,-2.297734727,-2.125229878,3.62195386
0.3751780417,0.01621199012,-0.4686052179,-1.579792539,1.647907202
0.3851930417,-1.124752569,-1.267618466,3.075894757,3.511844739
0.3952080417,-2.270150194,-3.150023711,8.832089435,9.647903144
0.4052230417,0.09311368416,-2.607169379,1.204110395,2.873305444
0.4152370417,1.56374047,-2.490816804,-4.398030031,5.290758052
0.4252520417,2.274570105,-1.316177253,-3.963593602,4.75563518
0.4352670417,0.2781859624,-0.7530243123,-0.146209335,0.8159719445
0.4452820417,-1.447121555,-1.414731488,3.131315252,3.728372458
0.4552970417,0.2675992861,-1.707832528,2.907264858,3.382379381
0.4653120417,1.784903508,-3.434351004,0.3692236018,3.888055223
0.4753270417,1.229388785,-5.767069037,-1.80886189,6.167857278
0.4853410417,3.606231662,-5.201933305,-0.2225181305,6.333603337
0.4953560417,3.488528088,-5.788427746,1.155118622,6.856385566
0.5053710417,2.549529866,-6.005343075,-1.261288855,6.644930215
0.5153860417,0.3914661178,-4.774555635,-1.401132619,4.991272368
0.5254010417,0.7962438606,-6.339523728,1.169326625,6.495451497
0.5354160417,-0.4751384582,-15.60181095,2.654655787,15.83317589
0.5454310417,-0.1077720051,-12.42568409,3.750080768,12.97968974
0.5554450417,2.881837949,-0.9812621891,-0.8572228646,3.162703983
0.5654600417,-1.93187152,6.772579629,-2.671384671,7.532347474
0.5754750417,-0.2431764165,21.5578655,-1.299001057,21.59833566
0.5854900417,3.459456609,20.10785425,-7.031459255,21.58089576
0.5955050417,-0.2689108166,8.043987091,-3.204111625,8.662815516
0.6055200417,-3.127955149,0.6394094038,2.615263095,4.127050867
0.6155350417,-2.529337091,-1.867215348,2.567926376,4.059345409
0.6255500417,-0.5987665042,-2.657385267,0.493549513,2.768358522
0.6355640417,1.096265446,-2.673030662,-0.5696954636,2.944731527
0.6455790417,1.416104999,-3.399508615,-1.195966174,3.871995259
0.6555940417,1.871944137,-3.38198451,-2.565089307,4.639146175
0.6656090417,1.951066613,-2.653221465,-3.469077033,4.783381704
0.6756240417,1.327795086,-1.618584137,-3.758967952,4.302638081
0.6856390417,-0.1861130735,-0.7107331556,-3.339797434,3.419652993
0.6956540417,-2.087227654,-0.0006882172823,-1.786195743,2.7471831
0.7056680417,-3.845366702,0.8466417432,-1.336176485,4.158006123
0.7156830417,-4.073163992,2.829141964,-2.811914313,5.701014932
0.7256980417,-2.803147582,6.595939338,-4.304204439,8.360037558
0.7357130417,-2.968542509,11.61183821,-4.827904462,12.92113357
0.7457280417,-2.516010702,15.82092717,-5.163637551,16.83137543
0.7557430417,-2.41088522,17.9493698,-4.388922408,18.63477619
0.7657580417,-2.380847635,17.84396789,-3.157771271,18.27695666
0.7757720417,-2.376402581,16.06799775,-1.963880932,16.36107177
0.7857870417,-2.326164766,14.11888572,-0.9249125719,14.33908783
0.7958020417,-2.066362157,12.17394275,-0.07851173401,12.34831562
0.8058170417,-1.344591067,10.06526254,0.7101432446,10.17947634
0.8158320417,-0.4697137038,7.936459134,1.147958267,8.032796695
0.825847,0.3361051916,5.804888243,1.7639332,6.076278018
0.835862,0.7773106494,3.48920198,2.604508896,4.422918594
0.845877,1.014520055,0.8276833159,2.605243306,2.915750898
0.855891,1.008647916,-1.97974092,2.028870395,3.008830306
0.865906,0.8157585043,-4.655522697,1.548474852,4.973643321
0.875921,0.4044995615,-7.104841812,1.519961489,7.276859212
0.885936,-0.1993771168,-8.963387493,1.507825009,9.091512682
0.895951,-0.8293461909,-10.06917783,1.399128778,10.19969209
0.905966,-1.305386217,-11.10825963,1.835373166,11.33428691
0.915981,-1.217793099,-12.4294076,2.154407777,12.67338417
0.925995,-0.4953234851,-13.11539593,1.909740393,13.26295834
0.93601,0.3538849299,-13.02670302,1.212338305,13.08778019
0.946025,1.075855009,-12.00143819,0.9046028531,12.08347173
0.95604,1.451086844,-10.37165313,0.9859294367,10.51897802
0.966055,1.381679517,-8.958088746,1.286889135,9.154915396
0.97607,1.331513184,-7.969350892,1.218559815,8.171191407
0.986085,1.202590704,-7.428172372,0.5725371738,7.546639517
0.996099,0.9002800065,-7.465854169,0.1458330667,7.521352926
1.006114,0.6173510751,-7.875776145,0.02757429957,7.899983075
1.016129,0.4338329228,-8.573182912,0.03826527558,8.584237909
1.026144,0.1984793499,-9.320827201,-0.04903241158,9.323069127
1.036159,0.1300542822,-9.811734284,-0.59712943,9.830748056
1.046174,-0.00653733328,-10.00721723,-1.208503554,10.0799266
1.056189,-0.250017805,-9.987204548,-1.536740659,10.10783535
1.066203,-0.3986815819,-9.739551576,-1.511149735,9.864146463
1.076218,-0.5185717222,-9.377989581,-0.689108398,9.417562084
1.086233,-0.4747705952,-8.780849115,0.1716975673,8.795350951
1.096248,-0.171092819,-7.853007672,0.6443642613,7.881256724
1.106263,0.4920358881,-6.253531651,2.308840928,6.684272875
1.116278,1.871052291,-3.465779203,3.506025589,5.273014089
1.126293,2.657399593,0.2825251812,5.027973962,5.694042082
1.136307,3.385987221,5.482003241,5.715765567,8.613201786
1.146322,1.679599832,13.57979816,4.343174962,14.35601416
1.156337,-2.738703372,26.47714206,-1.78886909,26.67844824
1.166352,-5.127620457,31.18871149,-6.021552726,32.17588092
1.176367,-2.888909279,22.54165953,-6.242424281,23.56777614
1.186382,-0.489446741,17.91829769,-6.524346614,19.07543051
1.196397,-0.8642175964,18.46997898,-3.842160966,18.8851581
1.206411,-2.450175001,20.29437575,-3.418330218,20.72558868
1.216426,-4.452422585,21.80240541,-4.607307726,22.72435331
1.226441,-4.74191677,19.5199097,-4.011482298,20.48425346
1.236456,-3.617423233,14.56919734,-2.249494028,15.17917934
1.246471,-2.084468207,10.99504584,-1.236604249,11.25900665
1.256486,-0.7611966732,8.933461443,-0.5891631103,8.985169275
1.2665,0.09001057595,6.880344983,0.1647371149,6.882905441
1.276515,1.096721309,4.263174527,0.6416781235,4.448505984
1.28653,1.848745748,0.9112528914,1.342476275,2.459773408
1.296545,2.291692214,-2.763798745,2.069657063,4.144142501
1.30656,2.346499628,-5.943019942,2.507013592,6.863720834
1.316575,2.178285759,-8.314467008,2.423535233,8.930219118
1.32659,1.618655181,-9.613914793,2.264584522,10.00878341
1.336604,1.192656357,-10.58053555,2.813693036,11.0130391
1.346619,1.194695866,-11.72965844,3.042220935,12.1765058
1.356634,1.654799452,-12.69122487,2.668188583,13.07382041
1.366649,2.062997085,-13.39246273,1.547382592,13.63848994
1.376664,1.904221206,-13.04537903,0.7160523677,13.20305659
1.386679,1.392815539,-11.33528363,0.2197980424,11.42264861
1.396694,0.6736113761,-9.605382535,0.2015723077,9.631082874
1.406708,0.3978743738,-8.896300634,0.5517362523,8.922268875
1.416723,0.4356090876,-8.785082499,0.6476586556,8.819687722
1.426738,0.4124924129,-8.838873374,0.5762863719,8.867239621
1.436753,0.3505291763,-8.926962848,0.4618575311,8.945772676
1.446768,0.3759117202,-9.078741948,0.4223503069,9.09633139
1.456783,0.4415143369,-9.261572687,0.4698683261,9.283988356
1.466798,0.5970334625,-9.35804122,0.5763518608,9.394762685
1.476812,0.742318572,-9.36240032,0.5887607487,9.410218692
1.486827,0.6189350127,-9.328177151,0.5031575116,9.362218594
1.496842,0.3212951446,-9.234976627,0.4080163693,9.249567624
1.506857,0.08452062517,-8.954254727,0.5515222442,8.971621829
1.516872,0.09412036456,-8.366345844,0.9718423978,8.42312763
1.526887,0.3640108822,-7.521669935,0.3625238987,7.539193996
1.536901,0.5788726685,-6.649570584,0.3783348063,6.6854334
1.546916,1.438781086,-5.387864823,0.3534209533,5.587851531
1.556931,2.483246414,-3.202418271,0.07619627316,4.053122427
1.566946,2.432362335,0.05854700089,2.781332206,3.695351556
1.576961,2.595048686,5.266259694,5.377911108,7.961764674
1.586976,1.301572224,14.07645365,4.499482731,14.83529515
1.596991,-4.734484667,27.12691741,-1.422695396,27.57370224
1.607005,-9.490486502,30.60519211,-4.358956597,32.33802129
1.61702,-5.694050762,21.81640833,-5.830049397,23.2887819
1.627035,-2.053778657,17.28969511,-6.674911247,18.64687652
1.63705,-1.377354332,17.63944749,-4.790995667,18.33032602
1.647065,-2.208751068,19.23388613,-5.319876323,20.07789932
1.65708,-3.710411503,20.510414,-5.756753379,21.62370101
1.667094,-3.566712086,18.70713971,-4.481641706,19.56434572
1.677109,-2.715241712,14.75739114,-2.052329425,15.14480726
1.687124,-1.820695046,12.04845215,-0.7344675887,12.2073573
1.697139,-1.283574933,10.10376762,-0.05601278108,10.1851275
1.707154,-0.6788932391,7.630459721,0.9337360203,7.717297101
1.717169,-0.1774724968,4.162846831,1.559070007,4.448762694
1.727184,0.502702452,0.1809964675,1.980299914,2.051111217
1.737198,1.259273905,-3.845823662,2.40959547,4.709806869
1.747213,1.751282896,-7.070460768,2.540935628,7.714581073
1.757228,1.71879021,-8.868040456,2.107626543,9.275692478
1.767243,1.202170289,-9.304435701,1.669618635,9.529184829
1.777258,0.822406423,-9.582445078,1.856151831,9.795147044
1.787273,1.11842442,-10.63927902,2.086382439,10.89945517
1.797287,1.760922615,-12.22861305,1.567668922,12.45381112
1.807302,2.306169335,-13.62024803,0.1209777315,13.81463749
1.817316792,2.187504479,-13.80198417,-0.536772058,13.98456532
1.827331792,1.565197304,-12.26919038,-0.1628706837,12.36969693
1.837346792,0.8387696368,-10.21558276,0.1671087456,10.25132142
1.847361792,0.4235018429,-8.954168188,0.4220052481,8.974105536
1.857375792,0.1281434486,-8.443030908,0.8023186791,8.482034362
1.867390792,-0.07877716105,-8.419565447,0.8573982811,8.463475644
1.877405792,-0.1143092288,-8.586056727,0.4921683276,8.600910787
1.887420792,-0.1321561369,-8.858948035,0.09158961654,8.860407112
1.897435792,-0.2191268186,-9.272919794,-0.04780451456,9.275631695
1.907450792,-0.2320230354,-9.645969813,-0.04973172029,9.6488881
1.917465792,-0.1254136395,-9.74881532,0.1609551724,9.750950482
1.927479792,-0.1292775161,-9.547824883,0.3243544078,9.55420737
1.937494792,-0.1943318833,-9.165696477,0.3206940508,9.173363694
1.947509792,-0.338074278,-8.834910716,0.4387399793,8.852255891
1.957524792,-0.1498398712,-8.420691036,0.6985013652,8.450940401
1.967539792,0.4842149448,-7.898185015,-0.3975404978,7.922993695
1.977554792,0.9240249646,-7.152187886,-1.295022612,7.326984186
1.987568792,1.610144851,-5.662195131,0.1093242216,5.887696657
1.997583792,2.593215876,-3.581435959,1.717901434,4.743694493
2.007598792,2.972649886,-0.5490751845,3.50539292,4.628813069
2.017613792,3.297453944,4.69387283,4.288663709,7.162281834
2.027628792,2.528515558,12.24747733,3.045314112,12.87120934
2.037643792,-3.53600514,23.71998809,-0.5825078094,23.98917428
2.047657792,-9.112564582,33.6467336,-4.610676892,35.16247797
2.057672792,-6.014291069,27.14864332,-5.918515431,28.42972663
2.067687792,-0.5439509039,18.14103334,-5.248304064,18.8927941
2.077702792,0.327206241,16.91912197,-5.139024282,17.68539858
2.087717792,-1.899639036,17.99886414,-6.239973128,19.14432039
2.097732792,-3.829364043,19.00433731,-5.213107334,20.07499324
2.107746792,-4.061978853,17.90428893,-2.962519877,18.59676742
2.117761792,-3.180936478,14.30154338,-1.376731603,14.71556624
2.127776792,-1.913586984,11.72699796,-0.436216321,11.89010433
2.137791792,-1.050195892,10.12321897,0.4872975969,10.18920668
2.147806792,-0.3063341662,8.207410337,1.361643448,8.325232606
2.157821792,0.3176757181,5.404746904,1.956576591,5.756769833
2.167835792,0.9682538154,1.929295821,2.521471417,3.319264365
2.177850792,1.714551564,-1.881716443,2.943883631,3.891914011
2.187865792,2.334754326,-5.313677689,2.769111525,6.43072523
2.197880792,2.397380345,-7.672476643,2.091346725,8.305905218
2.207895792,1.923154491,-8.905479593,2.278336004,9.391320723
2.217910792,1.664464022,-10.0603766,2.773246676,10.56752171
2.227925792,2.00778709,-11.44698649,2.821881477,11.95941988
2.237939792,2.80476346,-12.78946745,1.597053519,13.19044183
2.247954792,3.236339139,-13.75468137,-0.5088831782,14.13945235
2.257969792,2.844679478,-13.7198343,-1.033407658,14.04969701
2.267984792,1.70484197,-12.34020482,-0.1892392874,12.45885037
2.277999792,0.6640668198,-10.44232492,0.09750056684,10.46387313
2.288014792,0.1396239084,-9.1324878,-0.02898581743,9.133601066
2.298028792,-0.2249633996,-8.61465195,0.2053694165,8.620035577
2.308043792,-0.4668408206,-8.737679121,0.6169888401,8.771867077
2.318058792,-0.3852637569,-8.980633271,0.4919508111,9.002345123
2.328073792,-0.2318508349,-9.19826079,0.1887995768,9.203119126
2.338088792,-0.05745941877,-9.355290105,0.02383442044,9.35549692
2.348103792,0.05295238495,-9.401291905,-0.05342250109,9.401592812
2.358117792,0.1048019119,-9.298282092,0.04457564553,9.298979529
2.368132792,0.04177302025,-9.1675173,0.2998031004,9.172513305
2.378147792,-0.1157167632,-9.031637363,0.5382935035,9.048404485
2.388162792,-0.06141389072,-8.950991396,0.6112913132,8.972050808
2.398177792,0.1638289692,-8.669512281,0.5232614815,8.686834044
2.408192792,0.5730198249,-7.937275406,0.3534817278,7.965779429
2.418206792,1.109569104,-7.220945295,-0.08098510623,7.306144889
2.428221792,1.58319328,-6.562720721,0.2488925815,6.755571903
2.438236792,2.636686416,-5.220743213,1.142514364,5.959329998
2.448251792,3.694803823,-2.941163507,2.00186503,5.129276914
2.458266792,3.940533353,0.8151006925,5.115934796,6.50883869
2.468281792,3.882512017,7.31079478,5.737622459,10.07183853
2.478295792,0.1658677471,18.61250252,1.493622122,18.67307338
2.488310792,-8.085529804,33.70077591,-5.897640871,35.15537309
2.498325792,-11.62591363,31.90461417,-6.125434359,34.50488689
2.508340792,-5.544864317,18.8629376,-4.155567048,20.09538934
2.518355792,0.05900483787,14.43520371,-4.177925631,15.02776266
2.528370792,-0.3875963574,15.679124,-4.874626054,16.42398062
2.538384792,-1.553010245,17.71775808,-6.265475174,18.85701385
2.548399792,-2.693664024,19.34303143,-6.469603812,20.57339214
2.558414792,-2.917085842,17.42579023,-4.318443578,18.18836193
2.568429792,-2.633179548,13.21408055,-2.468970437,13.69822523
2.578444792,-1.897910599,10.87243558,-0.7557467759,11.06268833
2.588459792,-1.369658226,9.53483237,0.6482223272,9.654490363
2.598473792,-0.9731000608,7.826191757,1.617211211,8.050563536
2.608488792,-0.6554087014,5.487552833,2.54719098,6.085308418
2.618503792,-0.2655314914,2.389747097,3.102106948,3.924852313
2.628518792,0.4709245891,-1.063097481,3.132201397,3.341052501
2.638533792,1.318153904,-4.489978666,3.143376596,5.637220464
2.648547792,1.583746718,-7.491875448,2.817789595,8.159435617
2.658562792,0.9769381001,-9.164848046,2.393019783,9.522362702
2.668577792,0.4908462721,-10.28524532,2.405201873,10.57412868
2.678592792,0.7828391918,-11.61587045,2.35537307,11.87809185
2.688607792,1.632434437,-13.23142106,2.005358741,13.48172129
2.698622792,2.362228054,-14.42280294,0.7454860818,14.63397128
2.708636792,2.571188245,-14.36078503,-0.03311046163,14.58918271
2.718651792,2.208993874,-12.70630835,-0.2137718836,12.89866753
2.728666792,1.523180674,-10.5672191,0.005337320175,10.67643327
2.738681792,0.9554265592,-9.152293489,0.4782846987,9.214449103
2.748696792,0.4679921374,-8.557041673,0.7466964555,8.602298206
2.758711792,0.08760123074,-8.529438137,0.8807204854,8.575235127
2.768725792,-0.2513922662,-8.692650883,0.8306472695,8.735865861
2.778740792,-0.4490892586,-8.846222155,0.7241554391,8.887166516
2.788755792,-0.5260470585,-9.053971973,0.505999368,9.083345714
2.798770792,-0.5101245421,-9.210969713,0.1017240107,9.225645662
2.808785792,-0.3765177841,-9.247775012,-0.3016836198,9.260352117
2.818800667,-0.3295342369,-9.268088239,-0.4728409775,9.285991117
2.828814667,-0.2790591345,-9.211873108,-0.3420538565,9.222444416
2.838829667,-0.1440179813,-8.933769591,0.1733513061,8.936611828
2.848844667,0.1060511696,-8.241086791,0.2268017642,8.244889167
2.858859667,0.4281513661,-7.426524042,0.02590674676,7.438900732
2.868874667,0.9739949041,-6.638245697,0.7960165501,6.75637583
2.878889667,2.407229395,-5.224422281,1.01240329,5.840744983
2.888903667,3.693912415,-3.158644845,1.681004333,5.14274263
2.898918667,3.915029845,-0.2505654699,3.635485282,5.348550736
2.908933667,3.767619199,4.756758465,3.645806787,7.079096881
2.918948667,1.124884789,13.80462361,1.011696947,13.88727941
2.928963667,-6.101567779,28.56463079,-4.069886627,29.49120613
2.938977667,-9.653729653,36.40722048,-6.209820206,38.17384008
2.948992667,-4.291754547,27.61324203,-4.936456851,28.37743644
2.959007667,-0.9594461545,19.18161085,-3.937348959,19.60503631
2.969022667,-0.8686520516,17.94177894,-4.070124024,18.41814045
2.979037667,-2.386983995,18.64295131,-4.826187719,19.4048812
2.989052667,-3.167609797,18.88571718,-4.678488221,19.71274505
2.999066667,-3.030308695,16.21772741,-3.565687069,16.87932396
3.009081667,-2.632980451,12.55492393,-2.017349042,12.98569976
3.019096667,-1.936671645,10.11925924,-0.8999436454,10.34214693
3.029111667,-1.264756254,8.060351694,0.0956639564,8.159536102
3.039126667,-0.4733355423,5.48421992,0.8878517497,5.575750658
3.049141667,0.1961767164,2.187278484,1.751767337,2.809156684
3.059155667,0.8442522054,-1.681434104,2.33250461,2.99675828
3.069170667,1.365409347,-5.40613094,2.461967812,6.095234198
3.079185667,1.253673734,-7.837800819,2.295915073,8.262810994
3.089200667,0.516986542,-8.823107527,1.983280824,9.058029827
3.099215667,-0.08211007398,-9.228958672,2.267572449,9.503804767
3.109230667,0.2044552409,-9.921599958,2.784364572,10.30692164
3.119244667,1.024160652,-11.34121036,2.687230625,11.7001353
3.129259667,2.009125225,-13.031679,0.8864191818,13.21540694
3.139274667,2.338701781,-13.80401199,-0.5855366671,14.01296279
3.149289667,1.904279971,-12.96736547,-0.4071884036,13.11276675
3.159304667,1.039260429,-10.99455467,0.4048822618,11.05098296
3.169319667,0.5570987338,-9.601935017,0.6738050652,9.641655892
3.179333667,0.6360244507,-9.21310804,0.8004253507,9.26965844
3.189348667,0.6657744992,-9.229027669,0.7047111082,9.279807388
3.199363667,0.4757247877,-9.465810667,0.4789828563,9.489853015
3.209378667,0.1887323703,-9.699945461,0.3196357413,9.707045321
3.219393667,-0.1264905139,-9.79337812,0.1838960652,9.795921223
3.229407667,-0.4491079697,-9.692197316,0.1404922199,9.703614009
3.239422667,-0.6690884086,-9.537234406,0.1117309356,9.561328528
3.249437667,-0.7030811968,-9.301578167,0.2064628458,9.330396909
3.259452667,-0.5028456357,-9.145561005,0.2540007091,9.162895622
3.269467667,-0.1533131173,-8.969373288,0.4579539299,8.982365161
3.279482667,0.09176148813,-8.611060005,0.6863239539,8.638854968
3.289496667,0.5004421012,-7.93557445,0.6739758039,7.979851348
3.299511667,1.138190932,-6.891959893,1.324376804,7.109751309
3.309526667,1.887007881,-5.44408814,2.011510012,6.102873663
3.319541667,3.140226701,-3.540354592,2.147165415,5.196677178
3.329556667,3.98281954,-1.315559787,3.225023607,5.290966481
3.339570667,4.480979509,2.376718916,3.517389067,6.172519422
3.349585667,3.394115728,8.347793214,1.53703419,9.14156153
3.359600667,-0.8013822475,18.4453622,-2.63883556,18.65039017
3.369615667,-7.698526574,29.91240465,-3.952880334,31.13911569
3.379630667,-10.34958106,30.99821622,-3.926788888,32.91539014
3.389645667,-6.697080966,22.88341526,-3.640938395,24.11966044
3.399659667,-3.29310654,18.89177724,-5.354773675,19.91023352
3.409674667,-2.917565606,18.08661213,-6.414345285,19.41086173
3.419689667,-2.893448473,17.7173628,-5.071396555,18.65465228
3.429704667,-2.553958547,17.13629107,-4.144317005,17.81433522
3.439719667,-2.021303514,15.07161233,-3.306701024,15.56192269
3.449733667,-1.315788706,12.52187664,-2.358531736,12.80981524
3.459748667,-0.121436071,10.43716066,-1.266194669,10.51438625
3.469763667,0.589386547,8.367870213,-0.07917828005,8.388974765
3.479778667,0.8461509425,5.880353578,1.384183295,6.100040411
3.489793667,0.9109766836,2.894827246,2.484527539,3.92208878
3.499808667,0.8692900559,-0.3957173359,2.589518974,2.760048175
3.509822667,0.7798481217,-3.602965992,2.457820966,4.430621958
3.519837667,0.391943543,-6.133845579,2.62199441,6.682255309
3.529852667,-0.3956754553,-7.846475163,2.76317894,8.328198449
3.539867667,-0.6649169319,-9.402411062,3.322488506,9.994317294
3.549882667,-0.1075811301,-11.04348184,3.945704631,11.72768732
3.559896667,1.012434281,-12.56770361,3.294225404,13.0316583
3.569911667,2.08155527,-13.65622244,1.196865402,13.86570483
3.579926667,2.750218294,-13.68403999,-0.3007702482,13.96091379
3.589941667,2.83350428,-12.28885457,-0.2846073381,12.61450334
3.599956667,2.207670356,-10.42898391,0.09466053765,10.66051004
3.609971667,1.523722711,-9.166754238,0.407612948,9.301465609
3.619985667,0.9238407773,-8.839581472,0.5621899045,8.905489311
3.630000667,0.5046401462,-9.045708103,0.511664114,9.07421054
3.640015667,0.0973789813,-9.227208601,0.5691668387,9.245258899
3.650030667,-0.2497562152,-9.414503104,0.8267272961,9.454032203
3.660045667,-0.4720971751,-9.53882368,1.003411442,9.603065524
3.670059667,-0.5194764692,-9.437848697,1.102565163,9.516222663
3.680074667,-0.3953895995,-9.063603507,1.202781615,9.151607786
3.690089667,-0.08836575419,-8.902768824,1.247264893,8.99014855
3.700104667,0.29197377,-9.148881054,1.298159058,9.245133323
3.710119667,0.5595314679,-9.193568984,1.283069733,9.299519024
3.720134667,0.6238979101,-9.030194271,0.9216170812,9.098518298
3.730148667,0.6727762476,-8.616031893,0.6122268677,8.663916851
3.740163667,0.8771989998,-7.956502805,0.2964631891,8.010200084
3.750178667,1.155028501,-7.389619925,1.22830705,7.579532419
3.760193667,2.167687388,-6.205867488,1.966921484,6.861518784
3.770208667,3.555104193,-3.933771633,2.307271535,5.782458562
3.780222667,4.389940993,-0.6813052887,3.642639935,5.744961663
3.790237667,4.901010152,4.274537421,2.301490978,6.898436881
3.800252667,4.018392245,12.54142388,-0.7031685396,13.18822335
3.810267667,-2.024541117,26.83632716,-3.419168708,27.1289133
3.820283375,-9.62631089,37.29689306,-3.917328093,38.71781957
3.830297375,-8.841131569,27.71855038,-2.727632546,29.22197156
3.840312375,-4.523527066,17.85226041,-4.141474088,18.87636899
3.850327375,-2.822559754,17.06680627,-3.794894414,17.70999558
3.860342375,-4.247880842,18.16042738,-4.169553587,19.11101231
3.870357375,-4.734183827,19.54125906,-4.074443947,20.5152235
3.880372375,-3.225150784,17.68346766,-3.60942775,18.33397379
3.890386375,-1.47507797,14.96468079,-2.581449816,15.25717566
3.900401375,0.007745514214,12.17831413,-2.045908012,12.34897302
3.910416375,0.8977864614,9.758034625,-1.502250273,9.913728671
3.920431375,1.239803846,7.19129231,-0.6077747246,7.322649028
3.930446375,1.255894214,3.97841337,0.3938848186,4.190487856
3.940460375,1.180114153,0.154931919,1.241596748,1.719952266
3.950475375,1.13383366,-3.698995399,1.59365044,4.184240368
3.960490375,0.916276746,-7.003679134,1.724357929,7.270797394
3.970505375,0.3370103406,-8.998124047,1.581599329,9.142279189
3.980520375,-0.5717685939,-9.733512572,1.452509179,9.85788868
3.990534375,-1.212926169,-10.2028674,1.850758359,10.44006703
4.000549375,-1.114825751,-10.98991315,2.70444015,11.37255574
4.010564375,-0.03506717753,-11.85115072,2.767260296,12.16999312
4.020579375,1.095098415,-12.58740171,2.06004541,12.8017854
4.030594375,1.878777047,-12.49336912,1.711616846,12.74926302
4.040609375,2.358108398,-11.28841001,1.589826361,11.64115216
4.050623375,2.482592988,-9.988190389,0.9766674471,10.33833132
4.060638375,2.170741681,-9.387419971,0.4424167085,9.645284117
4.070653375,1.544403143,-9.223455273,0.2526160884,9.355272478
4.080668375,0.9563860872,-9.31610499,0.1933230193,9.367062523
4.090683375,0.4635757719,-9.386776777,0.2051671394,9.400456069
4.100697375,0.07014469732,-9.467915665,0.197966878,9.470244886
4.110712375,-0.1040088102,-9.463234384,0.07045427084,9.464068187
4.120727375,-0.03319606852,-9.340127106,0.114438233,9.340887133
4.130742375,0.02505447853,-9.225425785,0.2835268823,9.229815606
4.140757375,0.04615704328,-9.013189398,0.2137964237,9.015842862
4.150771375,-0.06684134938,-8.767098802,0.02394193612,8.767386292
4.160786375,-0.2080456871,-8.686594337,0.2022703922,8.691439323
4.170801375,-0.0645760284,-8.62038573,0.5006281523,8.635151923
4.180816375,0.3096562983,-8.214476112,0.9900728468,8.279719141
4.190831375,0.8503684661,-7.499717149,0.739519583,7.583915417
4.200846375,1.656142265,-6.496643676,0.6179127733,6.732830196
4.210860375,2.735680069,-4.992978376,1.700979592,5.941978633
4.220875375,3.082483692,-3.128155124,2.10538589,4.870288486
4.230890375,2.305346924,0.1639799005,3.601709425,4.279465461
4.240905375,1.942369903,6.200207384,1.910824467,6.772490132
4.250920375,-0.925543121,15.78932063,-0.3724932917,15.82080994
4.260934375,-6.435032149,29.79462301,-2.33701983,30.57107883
4.270949375,-6.673706721,35.99440706,-4.275972912,36.85674491
4.280964375,-2.16719476,25.66158412,-5.812036464,26.40063258
4.290979375,1.068779878,20.35039208,-6.75806801,21.46979812
4.300994375,0.6129106995,20.46303752,-6.171261327,21.38214279
4.311008375,-2.244890223,20.80952949,-6.170405295,21.82086046
4.321023375,-4.273410078,18.63840686,-5.875228493,20.00426339
4.331038375,-4.191892582,15.0456004,-4.079310877,16.14257824
4.341053375,-3.214845943,12.21165612,-3.224678621,13.03297095
4.351068375,-2.244213408,10.03992421,-1.920022137,10.46532642
4.361082375,-1.437427456,7.826988732,-0.5039515635,7.973827029
4.371097375,-0.3964546698,5.268816682,0.7226386714,5.332899041
4.381112375,0.6197697759,2.210750377,1.486646394,2.735260372
4.391127375,1.565130938,-1.17525117,2.369282427,3.073166019
4.401142375,2.227832141,-4.437832612,2.60051057,5.605376844
4.411157375,2.072136575,-6.738358215,2.195741744,7.383800053
4.421171375,1.290953827,-7.677111731,2.148716097,8.07598831
4.431186375,0.6053335486,-8.205472569,3.096057419,8.79100565
4.441201375,0.4760083411,-9.292910839,3.934839334,10.10285783
4.451216375,0.9408602679,-10.96127466,3.544758714,11.55854985
4.461231375,1.781541067,-12.50725041,1.615229005,12.73633253
4.471245375,2.091868882,-13.07706392,0.2022293886,13.24486364
4.481260375,1.730988964,-12.95327602,0.1155515063,13.06893395
4.491275375,1.104875252,-12.29655652,0.6190037906,12.36160254
4.501290375,0.6113058947,-11.21760139,0.6358039375,11.25222301
4.511305375,0.1607770516,-10.32353522,0.1181253775,10.32546282
4.521319375,-0.2173301519,-9.848753006,-0.07854678076,9.851463738
4.531334375,-0.5230120978,-9.636856928,0.08248433232,9.651391442
4.541349375,-0.6322398403,-9.463605682,0.3087774618,9.489726194
4.551364375,-0.5952407062,-9.367449975,0.6441175818,9.408417401
4.561379375,-0.4625878118,-9.366951208,0.8987030856,9.421328444
4.571393375,-0.3327086172,-9.465013692,1.089588876,9.533330117
4.581408375,-0.3430604912,-9.677125533,1.336526148,9.775006456
4.591423375,-0.4033649093,-9.738446453,1.28477829,9.831108677
4.601438375,-0.3772954638,-9.701596715,0.734642932,9.736684801
4.611453375,-0.5664113749,-9.276400056,0.2904685505,9.298214443
4.621467375,-0.3727282036,-8.818751936,0.7900464698,8.861912065
4.631482375,0.2720578246,-8.277481615,0.4570944623,8.294555606
4.641497375,1.029995808,-7.282859707,2.351517416,7.722083336
4.651512375,2.682947832,-5.192157345,3.306371241,6.714819264
4.661527375,3.921472015,-2.466259668,2.346672413,5.193000186
4.671542375,4.460049985,0.6909572875,2.124329699,4.988210553
4.681556375,4.190508839,6.138751978,-0.08417293511,7.433150426
4.691571375,1.958404138,15.83035872,-3.51492622,16.33371698
4.701586375,-5.130424197,30.89214773,-4.925066475,31.70019438
4.711601375,-12.06598795,39.2311286,-6.697085059,41.58750371
4.721616375,-5.601718549,28.38390505,-6.710619024,29.69945664
4.731630375,-1.280389662,18.47842236,-5.911230969,19.44310012
4.741645375,-0.7663805223,17.3276412,-5.756365124,18.27485234
4.751660375,-3.375535908,18.74045948,-3.683245339,19.39498287
4.761675375,-4.979204675,19.20718307,-2.107355232,19.95367902
4.771690375,-4.28070331,17.13898664,-2.006178521,17.77903361
4.781704375,-2.878992109,14.3475025,-1.734515712,14.73594137
4.791719375,-1.318421707,12.03500472,-0.1449360673,12.10787268
4.801734375,-0.07695140451,9.500520324,1.175511371,9.573277126
4.811749375,0.7727920673,5.48429301,2.130602592,5.934150723
4.821764542,2.008210721,1.318989764,2.544587799,3.499653035
4.831778542,2.802174021,-2.879309905,2.611918488,4.792152226
4.841793542,2.835425675,-6.167259493,2.003735554,7.077406628
4.851808542,2.028069619,-8.255322422,1.974907612,8.727180229
4.861823542,1.180893733,-9.636773897,2.699215078,10.07708704
4.871838542,0.981984905,-11.26828155,3.027507001,11.70915292
4.881852542,1.544213401,-12.65840796,3.009871799,13.10264154
4.891867542,2.589421618,-13.43093156,1.588213699,13.7701652
4.901882542,3.063213316,-13.40034945,0.1143726711,13.74648037
4.911897542,2.587988757,-13.02277603,-0.6441900873,13.29305692
4.921912542,1.596772268,-12.21380205,-0.1185453172,12.31830732
4.931926542,0.7855549311,-10.78729661,0.3917634122,10.82295446
4.941941542,0.2034463038,-9.624559649,0.2625330027,9.630288802
4.951956542,-0.2370548203,-9.301889824,0.220216703,9.307515494
4.961971542,-0.5258237314,-9.308318253,0.296547389,9.327873265
4.971986542,-0.6759292855,-9.281643839,0.494073387,9.319329443
4.982000542,-0.6315050646,-9.162275856,0.7648041129,9.215802886
4.992015542,-0.4113778605,-9.159144087,0.8667912483,9.209260514
5.002030542,-0.02426762603,-9.185248981,0.6749335778,9.210044685
5.012045542,0.4026047713,-9.119689415,0.1666643572,9.130093243
5.022060542,0.5794566592,-9.108452235,-0.1107241181,9.127537016
5.032074542,0.601785714,-8.957106414,-0.2486306993,8.980741538
5.042089542,0.3524477208,-8.813004123,-0.04640343033,8.82017088
5.052104542,0.212154891,-8.648685669,0.174145358,8.653039934
5.062119542,0.1612317822,-8.298590648,0.04279701389,8.300267105
5.072134542,0.1566738776,-7.693085155,0.07874799807,7.69508331
5.082148542,0.8591787583,-6.474217849,0.9435499871,6.598785606
5.092163542,2.366335723,-4.43477218,0.4015259965,5.042615607
5.102178542,3.338553731,-1.95740631,1.082842358,4.018697308
5.112193542,3.46341839,2.065832984,2.802874517,4.911113766
5.122208542,3.067472135,10.22049325,0.6527924379,10.69083746
5.132222542,-1.380671749,23.97058338,-1.160599802,24.03834674
5.142237542,-9.996143771,38.69633992,-2.915370269,40.07279623
5.152252542,-10.93098258,38.28973858,-7.72523607,40.56192467
5.162267542,-5.295828479,23.99178539,-7.180125883,25.59698758
5.172282542,-1.416913377,18.63127092,-4.964180839,19.33326126
5.182296542,-2.643134725,19.66945107,-6.484447553,20.87873384
5.192311542,-4.951124007,18.29464086,-5.05819822,19.61613832
5.202326542,-3.876904245,14.82770859,-1.683587633,15.41835905
5.212341542,-2.275387838,12.67177235,-0.2246125301,12.87639915
5.222356542,-1.450337231,10.90826497,1.268423628,11.07712153
5.232370542,-0.491290295,8.645529926,2.043552754,8.897340149
5.242385542,0.5766012445,5.628422198,2.147548993,6.051741246
5.252400542,1.769789041,2.115322648,1.976860582,3.393334778
5.262415542,2.570467283,-1.85394977,1.817319303,3.653365743
5.272430542,2.574405676,-5.104540912,2.025871943,6.06531612
5.282444542,1.610067083,-6.743212574,1.698122642,7.137706377
5.292459542,0.6587678538,-7.832779815,1.986521351,8.107569413
5.302474542,0.07879123092,-9.193174882,3.1641997,9.722799608
5.312489542,0.6129738495,-10.71569745,4.933402265,11.81272055
5.322504542,1.555710196,-12.62618746,4.546263964,13.50960251
5.332518542,2.315999089,-13.95171032,1.202108016,14.19363013
5.342533542,2.230931165,-14.08227981,-1.647157141,14.35272745
5.352548542,1.644321534,-12.81826265,-2.299674833,13.12631536
5.362563542,1.141838718,-10.75751089,-1.343293716,10.90102171
5.372578542,0.7480091554,-9.572982529,-0.3401606011,9.608185127
5.382592542,0.3360867729,-9.314972969,-0.06880425967,9.321287988
5.392607542,-0.06678338885,-9.300046197,-0.136552366,9.301288396
5.402622542,-0.3718656662,-9.264372334,0.009797594547,9.271837725
5.412637542,-0.6565672541,-9.34452772,0.3947770306,9.375880107
5.422652542,-0.8867901877,-9.401898261,0.8979276717,9.486219577
5.432666542,-1.200331193,-9.534997846,1.109345594,9.674069803
5.442681542,-1.105306118,-9.418326598,1.252219824,9.565282642
5.452696542,-0.7934826592,-9.141787797,1.251625746,9.261126598
5.462711542,-0.4955590548,-8.795046739,1.033101337,8.869370005
5.472726542,-0.4573030617,-8.535446151,0.7003561751,8.576331726
5.482740542,-0.5319664507,-8.425027331,0.5322265057,8.458566007
5.492755542,-0.4084083521,-8.288701252,0.6755932168,8.326211145
5.502770542,0.3013155741,-7.86309295,0.7752262632,7.906958807
5.512785542,1.171361894,-7.291111883,1.270845544,7.493160186
5.522800542,2.429362568,-6.037379385,1.334931028,6.643326965
5.532814542,3.940909329,-3.766850583,0.0105121243,5.451608951
5.542829542,4.061780924,-0.6819899976,-0.02096577644,4.118690836
5.552844542,3.351389246,4.116940926,1.05212233,5.411836459
5.562859542,2.798972378,11.8797857,-0.1003007253,12.20547479
5.572874542,-1.997421146,24.48827013,-1.427556771,24.61103378
5.582888542,-9.003604642,35.96439681,-1.693081173,37.11292576
5.592903542,-5.25089555,30.77237103,-3.729195099,31.4391097
5.602918542,0.5985707686,21.19604681,-5.021460164,21.79095568
5.612933542,1.587916076,19.91432779,-4.600871111,20.50048642
5.622948542,-1.43533503,20.81556849,-6.333811584,21.80516561
5.632962542,-3.140699741,21.41399827,-6.648954288,22.64137606
5.642977542,-3.515399845,18.07757117,-3.762766303,18.79667592
5.652992542,-3.987654018,13.82963799,-1.598062749,14.48150808
5.663007542,-3.728718551,10.90325157,-0.8268208516,11.55282951
5.673022542,-2.961377039,8.179594547,0.06445385814,8.699406602
5.683036542,-2.052726158,5.041043658,1.381570759,5.615562626
5.693051542,-0.562184642,1.552541006,2.639830756,3.113702228
5.703066542,1.051422345,-2.136719949,2.908010963,3.758668494
5.713081542,2.162806132,-5.254545967,3.200101604,6.52139816
5.723096542,2.099480495,-7.133423002,3.117004484,8.062831948
5.733110542,1.506939155,-8.080600601,2.161672357,8.499399925
5.743125542,0.871733315,-8.508060717,1.980744302,8.77897284
5.753140542,0.6625520986,-9.278451844,3.273246764,9.861175807
5.763155542,0.8857976228,-10.53804033,4.157030021,11.36291468
5.773170542,1.521837569,-12.09655134,3.701770488,12.74149319
5.783184542,2.250233116,-13.18695883,2.292122569,13.57251849
5.793199542,2.32214539,-12.8175142,1.40030056,13.1012164
5.803214542,1.597982934,-11.5566253,1.122535524,11.72046175
5.813229542,1.04609407,-10.62508549,0.8095212062,10.70710414
5.823243417,1.010131355,-10.08526469,0.4349755418,10.14505461
5.833258417,0.9837171426,-9.727554844,0.3359669781,9.782939051
5.843273417,0.9996098748,-9.443178434,0.6437481109,9.517733474
5.853288417,0.8339982357,-9.240130363,0.743863918,9.307464515
5.863303417,0.4781423556,-9.080941671,0.5822447578,9.112141938
5.873317417,0.0302608759,-8.885872124,0.4960252972,8.899757313
5.883332417,-0.4433838379,-8.667946982,0.5526250291,8.696855094
5.893347417,-0.836531688,-8.590663748,0.6086014478,8.652727005
5.903362417,-1.060385834,-8.666814961,0.662754997,8.756560048
5.913377417,-1.135765507,-8.776749632,0.6056826639,8.870634074
5.923391417,-0.9123659089,-8.80423213,0.2681790376,8.85544098
5.933406417,-0.5767993555,-8.572028672,-0.1628224441,8.592955498
5.943421417,-0.2122344862,-8.210733894,-0.2500582239,8.217282012
5.953436417,0.4118650798,-7.642460546,-0.6945695512,7.685002466
5.963451417,1.283330812,-6.594389241,0.0002069914341,6.718102967
5.973465417,2.600714345,-4.92522318,0.5880006838,5.600650255
5.983480417,3.75327978,-2.278937683,0.2292110728,4.396953921
5.993495417,3.997795136,1.99948229,0.06090342879,4.470347258
6.003510417,3.010643339,8.774310758,1.539361382,9.403304529
6.013525417,-4.208945987,21.11411329,0.9609432609,21.55097256
6.023539417,-10.58425321,37.05130298,-3.800727596,38.72042096
6.033554417,-6.260041941,35.47419665,-6.371420875,36.58144007
6.043569417,-2.206868557,23.64056653,-8.154155066,25.10451951
6.053584417,-0.8559808429,21.73454965,-7.929701507,23.15174977
6.063598417,-2.572405928,20.82526317,-6.762405474,22.04629189
6.073613417,-4.804560038,18.66695764,-5.015115935,19.91709047
6.083628417,-4.871815297,16.16889614,-3.198251545,17.18710562
6.093643417,-4.07846537,13.20626166,-1.41554776,13.89399159
6.103658417,-3.193802984,10.75886628,0.04216427207,11.22298351
6.113672417,-2.07844192,8.593911876,1.220651876,8.925538256
6.123687417,-0.8809160017,6.180552553,2.213145397,6.623688958
6.133702417,0.1641532704,3.121745991,2.815053098,4.2067527
6.143717417,1.202200037,-0.5372795963,2.881786201,3.168382237
6.153732417,2.128249965,-4.743179476,2.753525187,5.882949975
6.163746417,2.660162694,-8.332339607,2.111904366,8.998026947
6.173761417,2.011048082,-9.955039015,1.866083912,10.32615056
6.183776417,0.9534309044,-10.28516579,2.74602087,10.68804456
6.193791417,1.244117922,-10.58799309,3.672063124,11.27552547
6.203806417,2.223967131,-11.45370611,3.709314566,12.24305632
6.213820417,3.141697276,-12.62811353,2.356371921,13.22467398
6.223835417,3.291041595,-12.91732734,0.9375731094,13.36290926
6.233850417,2.725680746,-11.92176871,-0.1542846322,12.23036011
6.243865417,1.537903086,-10.37280386,-0.5054133674,10.49836409
6.253879417,0.501604016,-9.484318274,-0.05385863028,9.497726068
6.263894417,0.1920562201,-9.413373422,0.4510624746,9.426130814
6.273909417,0.2559180111,-9.472855393,0.7512455893,9.506042986
6.283924417,0.1828284001,-9.539793148,0.6148838425,9.561336814
6.293939417,-0.07552176028,-9.655398449,0.4595467114,9.666623295
6.303953417,-0.2716244728,-9.587716343,0.3103410438,9.596582521
6.313968417,-0.3313947478,-9.302558745,0.4399947917,9.318852778
6.323983417,-0.3056774508,-9.001168107,0.9454188303,9.055842466
6.333998417,-0.3065815035,-8.765836973,1.516045024,8.901251742
6.344013417,-0.2805050413,-8.578288701,1.807477123,8.771128414
6.354027417,0.02997867465,-8.327795151,1.712558248,8.502113064
6.364042417,0.505574312,-7.931229969,1.398856298,8.069498941
6.374057417,0.9603024061,-7.356078542,0.7253519987,7.453871997
6.384072417,1.269377016,-6.610315302,0.470003945,6.747480279
6.394087417,1.815524792,-6.018396984,0.6823748175,6.323200765
6.404101417,2.612844394,-5.147882813,1.181643931,5.892701899
6.414116417,3.436156916,-3.613747673,0.7981542921,5.050088798
6.424131417,3.827858677,-1.390170844,-0.03619294927,4.07263882
6.434146417,4.16637124,2.753866664,1.762025692,5.295957464
6.444160417,3.303812207,9.235163738,4.791952271,10.91632864
6.454175417,-2.453147871,22.1973287,3.842880174,22.66069425
6.464190417,-9.225306501,36.2210311,-1.18468324,37.39616088
6.474205417,-7.032953804,30.0270054,-2.712892885,30.95873512
6.484220417,-3.019920531,18.02046843,-6.25662249,19.31327335
6.494234417,-0.2696730743,18.0461073,-7.6988815,19.6216077
6.504249417,-0.6912451898,19.56235347,-8.179765871,21.21490191
6.514264417,-2.562455721,18.74434203,-7.487130432,20.34634266
6.524279417,-2.88869264,15.90337992,-5.265132351,16.99951931
6.534294417,-2.547269625,13.01734163,-2.526284845,13.50266199
6.544308417,-2.061077152,10.38757393,-1.131712217,10.65037575
6.554323417,-1.688407786,8.336695783,-0.9659110554,8.56061923
6.564338417,-1.421585887,6.493254045,-0.7352464378,6.687588642
6.574353417,-0.7962957546,4.784446201,-0.2441165757,4.856398386
6.584367417,-0.6046789894,2.056837043,0.8242866683,2.296881323
6.594382417,-0.1140484795,-1.075395344,1.83752728,2.132132432
6.604397417,0.2014536092,-4.081569949,2.197229422,4.63978598
6.614412417,0.03617387272,-6.582741587,2.209105117,6.943625909
6.624427417,-0.09538771201,-8.123799246,2.144746861,8.402687195
6.634441417,-0.7149115759,-8.869209899,2.496910772,9.241674426
6.644456417,-1.448526933,-9.204364699,3.285877919,9.880058374
6.654471417,-1.094410782,-9.993242383,3.352692883,10.59731937
6.664486417,-0.03226672668,-11.05135102,2.904003282,11.42657585
6.674500417,1.058806209,-12.04978297,1.956823343,12.25346881
6.684515417,1.8638187,-12.3682469,0.9945004316,12.54736556
6.694530417,1.971474711,-11.95010081,0.5844269387,12.12572376
6.704545417,1.66989784,-11.0144738,0.4540047204,11.14958798
6.714560417,1.264987804,-10.06373641,0.03498739958,10.14298816
6.724574417,0.7292387161,-9.359924608,-0.4437978208,9.39877302
6.734589417,0.2644494276,-8.895068625,-0.5070049795,8.913429946
6.744604417,0.002654416636,-8.641298881,-0.1986368593,8.643582012
6.754619417,-0.1136509419,-8.542696699,-0.008961588889,8.543457364
6.764634417,-0.1454512435,-8.503426799,0.1655978251,8.506282738
6.774648417,-0.1348662848,-8.436796607,0.4082830755,8.447746502
6.784663417,-0.1473569242,-8.47523094,0.6821161513,8.503912981
6.794678417,-0.151268346,-8.590409394,0.9509736121,8.644209997
6.804693417,-0.08971638791,-8.725830324,1.250633035,8.815455
6.814707417,0.02713195771,-8.853154614,1.390222299,8.961685154
6.824721875,0.2123837364,-8.686628251,1.320001917,8.788914739
6.834736875,0.6540196223,-8.083277457,1.089514105,8.182551991
6.844751875,1.289699891,-7.048631358,0.9481798124,7.228110043
6.854766875,2.516299262,-5.319900296,-0.04788979255,5.885184328
6.864780875,3.673786883,-2.991080017,-1.86526764,5.091413665
6.874795875,3.907583123,-0.1511844385,-1.569534184,4.213727584
6.884810875,2.794437862,3.955611568,1.249655235,5.001738103
6.894825875,-1.516338262,10.40264103,1.816604773,10.66837734
6.904840875,-10.06373641,22.15614325,-2.185689357,24.43257482
6.914854875,-13.91835195,31.14198756,-4.585309331,34.41756778
6.924869875,-9.671690546,26.51890054,-5.053944955,28.6764022
6.934884875,-4.898465737,20.76454335,-7.323511305,22.55648565
6.944899875,-2.893451104,21.10411689,-6.99203265,22.41973081
6.954913875,-2.499486471,21.97276755,-5.739259679,22.84707964
6.964928875,-2.326329365,20.81921949,-5.095354936,21.55955358
6.974943875,-2.280150834,17.66995358,-3.600813632,18.17669404
6.984958875,-1.496250884,14.17116918,-1.790810219,14.36202646
6.994973875,-0.7315267316,10.97999628,-0.1204208482,11.00499663
7.004987875,-0.4662383381,7.612438018,0.7184686565,7.660469174
7.015002875,-0.7766891634,4.412554514,0.9376431298,4.577451042
7.025017875,-0.1931417191,1.682840359,2.047400222,2.657273615
7.035032875,1.031566662,-1.021103947,2.966596556,3.302647147
7.045046875,1.633933955,-3.810118225,3.867624421,5.669678978
7.055061875,1.988452102,-5.897092987,4.00618706,7.401295982
7.065076875,2.072969657,-7.59468821,3.681853702,8.690945799
7.075091875,1.656437842,-8.493425136,2.581612369,9.030325536
7.085106875,1.115711896,-9.073996933,2.070492046,9.3738557
7.095120875,1.184535964,-10.13369718,2.675346744,10.54762647
7.105135875,2.010253738,-11.46216119,2.283286257,11.85899049
7.115150875,2.531201184,-12.592228,1.17678029,12.8979067
7.125165875,2.773954189,-12.68256865,-0.09816415273,12.98275801
7.135180875,2.643914452,-11.41891752,-0.5344307598,11.73318274
7.145194875,1.960241041,-10.17825998,-0.06623842835,10.36551536
7.155209875,1.560677114,-9.56613427,0.5198550399,9.706538373
7.165224875,1.334543942,-9.449133239,0.9217786105,9.587325086
7.175239875,1.193428117,-9.585275715,1.178454859,9.730906281
7.185253875,0.9523322857,-9.787727371,1.26740972,9.91528473
7.195268875,0.5475781511,-9.789570998,1.453956804,9.912090221
7.205283875,0.1837257285,-9.567490239,1.644138808,9.709470482
7.215298875,0.08830245808,-9.145365123,1.690650924,9.300741965
7.225313875,0.2163516569,-8.731378162,1.824183934,8.922523167
7.235327875,0.4695952246,-8.38200995,2.015302516,8.633658246
7.245342875,0.873666843,-8.089593619,1.833420049,8.34063833
7.255357875,1.270121951,-7.928322149,1.352765036,8.142571775
7.265372875,1.641057618,-7.616431666,0.7690934841,7.829087189
7.275386875,1.939019741,-7.079557282,0.5171384235,7.358489044
7.285401875,2.032782767,-6.340987871,0.4735942085,6.675674081
7.295416875,2.113636896,-4.895701758,0.1700301607,5.335191363
7.305431875,2.053168208,-2.713549528,-0.4707686877,3.435181783
7.315446875,1.614378966,0.1082927728,1.252938885,2.046412133
7.325460875,1.45042874,4.632195815,4.683127402,6.744824969
7.335475875,0.5030199558,12.95020507,5.187035769,13.95944771
7.345490875,-4.823941804,27.09401396,0.519272511,27.52500047
7.355505875,-5.899509056,34.89895927,-5.479640965,35.81575115
7.365519875,-2.503012634,23.16167723,-5.550097575,23.94852704
7.375534875,-0.03541249216,15.68295743,-4.323834711,16.26812695
7.385549875,1.198607069,17.24723029,-3.57813696,17.65521667
7.395564875,-0.977256481,18.7264285,-4.25777053,19.22921643
7.405579875,-2.652271585,18.47986078,-4.542084374,19.2138057
7.415593875,-3.229646123,15.79234598,-3.764057368,16.55285273
7.425608875,-2.621058855,12.16449365,-3.210490937,12.85115198
7.435623875,-1.757026031,9.287909716,-2.45728887,9.766815036
7.445638875,-1.201242116,7.384622895,-1.133479392,7.567061084
7.455652875,-0.9817986712,5.887631607,0.04642689228,5.969111326
7.465667875,-0.7930637792,4.202783314,0.9875021915,4.389475859
7.475682875,-0.8739464861,1.926172823,1.521567135,2.60558837
7.485697875,-1.091012234,-0.721289134,1.943857435,2.342892963
7.495712875,-1.196427154,-3.434162139,2.308791811,4.307601091
7.505726875,-1.023267636,-5.823934963,2.229211206,6.31938903
7.515741875,-0.8636741707,-7.987196009,1.970414611,8.271865987
7.525756875,-0.937489275,-9.530514786,1.365144761,9.673325098
7.535771875,-1.190179111,-10.84871342,1.663094312,11.0397913
7.545785875,-0.5778826253,-12.4459751,2.051454681,12.62714183
7.555800875,0.712551055,-13.74135439,1.830653293,13.88106052
7.565815875,1.75111508,-14.14999992,1.335758994,14.32037548
7.575830875,2.379007224,-13.15018452,1.125557584,13.41096224
7.585845875,2.300682016,-11.29832688,1.117116471,11.5841822
7.595859875,1.969783989,-9.60560356,0.8781488069,9.844735347
7.605874875,1.561980166,-8.576962552,0.4077053706,8.727559357
7.615889875,1.122848423,-8.21824055,-0.1119963992,8.295348667
7.625904875,0.6111021923,-8.202937801,-0.123863835,8.226601772
7.635918875,0.2035883546,-8.397309775,0.09727895737,8.40034064
7.645933875,-0.00459675204,-8.646485361,0.1527059571,8.647834951
7.655948875,-0.1171532779,-8.846574157,0.08968232788,8.847804368
7.665963875,-0.2480891009,-9.065226694,-0.1519854339,9.069894309
7.675978875,-0.3438285595,-9.219659845,-0.4330658412,9.236227139
7.685992875,-0.447563647,-9.340043491,-0.5653508361,9.367835779
7.696007875,-0.3749295341,-9.294271486,-0.7910171076,9.335403724
7.706022875,-0.1735444835,-8.962967663,-0.5622425294,8.982261612
7.716037875,0.2907049242,-8.174313927,-0.3405078527,8.186566015
7.726051875,0.8772586414,-6.803647056,0.1047704101,6.86077057
7.736066875,1.412705136,-4.805188029,0.5005123043,5.033495839
7.746081875,1.407323358,-2.087692215,0.1072964803,2.520025864
7.756096875,0.6453294173,1.525626272,1.435782634,2.19213534
7.766110875,-0.4663180795,7.514521129,2.534070997,7.943991199
7.776125875,-6.120272437,19.62318322,0.460017997,20.5606097
7.786140875,-11.46074265,36.10860084,-4.951291237,38.20595453
7.796155875,-8.208216668,31.33821778,-1.517802697,32.43088712
7.806170875,-3.830558336,19.35589998,-6.854210268,20.88789696
7.816184875,-0.3818940796,21.21382936,-7.748648322,22.58791602
7.8262,0.6428788492,20.10556916,-4.45733717,20.60376323
7.836215,-1.577497361,16.41559368,-4.158433353,17.00743313
7.84623,-4.042207662,14.95169997,-5.007487657,16.2778287
7.856245,-2.178637907,13.69213253,-1.874222066,13.99048479
7.866259,-0.5711541246,10.17426049,0.4094011362,10.19850002
7.876274,0.4385046288,6.757810147,1.269761763,6.890034777
7.886289,1.399769633,4.281535953,1.814627244,4.856313126
7.896304,2.057058653,2.261014797,2.069694486,3.691519129
7.906318,2.456737477,0.09680182457,2.209405518,3.305510908
7.916333,2.394711529,-2.497192023,2.557910095,4.302733476
7.926348,2.578875287,-4.76919023,2.912084134,6.154348642
7.936363,2.663985604,-6.436952375,2.660784838,7.457275047
7.946377,2.373868252,-7.231866724,1.704606181,7.800053143
7.956392,1.546391927,-7.906571091,1.217688653,8.147880711
7.966407,1.174760004,-9.11688509,1.862941618,9.379136756
7.976422,1.523268967,-10.58265809,2.709872214,11.02979637
7.986437,2.018421713,-11.86839416,2.753360295,12.34964773
7.996451,2.462182697,-12.59087028,1.393562229,12.90481978
8.006466,2.709348888,-12.1684873,-0.05042872667,12.46656318
8.016481,2.264150074,-10.78766615,-0.3346571287,11.02778817
8.026496,1.509276872,-9.86739393,0.3417733363,9.988002236
8.03651,1.112337541,-9.595002558,0.8963337938,9.700761989
8.046525,0.9674333049,-9.563769071,1.032176308,9.667832951
8.05654,0.7448058314,-9.600089636,1.032337764,9.684119888
8.066555,0.4231806846,-9.669786108,1.071069721,9.738122797
8.076569,0.2202564275,-9.63846959,1.136843734,9.707781549
8.086584,0.06063752666,-9.518636168,1.064826941,9.578202745
8.096599,0.0363127441,-9.295857251,0.9295225898,9.342285207
8.106614,0.09269093961,-9.033851704,0.8256093085,9.071973267
8.116629,0.2010991949,-8.775247482,1.058041978,8.841089417
8.126643,0.4387475806,-8.332054263,1.751634021,8.525482358
8.136658,0.8272474059,-7.552569546,2.008047291,7.858619404
8.146673,1.136286348,-6.394762959,1.407111251,6.645607726
8.156688,1.407204514,-5.113736243,1.700867179,5.569871818
8.166702,2.277436118,-3.217259674,0.7220539498,4.007347874
8.176717,2.847380599,-0.2350580692,0.7279208998,2.948338076
8.186732,3.389597292,4.029474766,2.648167716,5.893965469
8.196747,2.380583341,10.42946455,3.407076666,11.22715811
8.206762,-1.264841039,20.84941685,2.164243963,20.99957042
8.216776,-5.153425974,28.09020643,0.5235540616,28.56381636
8.226791,-7.144015233,21.39016034,-3.565951363,22.8318182
8.236806,-5.014733527,13.62673961,-8.606776335,16.87934192
8.246821,-2.57832331,13.32984841,-7.197297986,15.3666427
8.256835,-2.546514457,16.16790679,-5.548744529,17.28220217
8.26685,-4.714462631,18.84367453,-5.951009578,20.31562804
8.276865,-5.684755443,19.08288763,-6.625883514,20.98512276
8.28688,-4.21459849,16.08912374,-5.562082028,17.53737437
8.296895,-3.0358884,12.71045285,-4.124485588,13.70341605
8.306909,-2.267241789,10.50385751,-2.717725024,11.08410741
8.316924,-1.865975592,8.390160384,-1.236795015,8.683681137
8.326939,-1.472149246,6.229182091,-0.3692678945,6.411418853
8.336954,-1.40319347,3.574721602,0.3141592757,3.853087398
8.346968,-1.44275193,0.3535647583,1.128524388,1.865504882
8.356983,-1.281362493,-2.852415052,2.154987967,3.797648562
8.366998,-1.030576437,-5.331198871,2.64710937,6.040774554
8.377013,-0.7519723251,-7.057125608,2.403095706,7.49288684
8.387027,-0.5625269964,-8.18186619,1.778996651,8.391912777
8.397042,-0.6251682177,-8.345702834,1.560555199,8.513337984
8.407057,-0.8554695039,-8.337502699,2.121466902,8.645600103
8.417072,-0.1956761216,-8.9375849,2.455572127,9.270843945
8.427087,1.054776308,-9.998010203,2.586782477,10.38095394
8.437101,2.469323901,-11.37490904,1.684650657,11.76112937
8.447116,3.237531678,-12.38535,0.5582079506,12.81366857
8.457131,3.104020742,-12.23814986,0.7366731584,12.64713185
8.467146,2.486115643,-11.0554008,1.343752137,11.41088637
8.47716,1.951819588,-9.926786438,1.322214503,10.2028888
8.487175,1.689186342,-9.197502991,1.149792978,9.421753322
8.49719,1.389630269,-8.838459976,0.9512893617,8.997466226
8.507205,1.084974399,-8.694971058,0.843482054,8.802905948
8.517219,0.7393900672,-8.678265563,0.8902643108,8.755087744
8.527234,0.3622605181,-8.72088241,1.03569984,8.789635763
8.537249,0.1126534069,-8.741761647,1.192627414,8.823460072
8.547264,0.006878445223,-8.796327279,1.257991025,8.885829299
8.557279,-0.05003572069,-8.870627264,1.210089538,8.952924009
8.567293,0.04374799043,-8.849220607,1.209181978,8.931558671
8.577308,0.3504923388,-8.615969328,1.168767192,8.701941685
8.587323,0.980922539,-8.044025098,0.2444218735,8.107298617
8.597338,1.855949225,-7.170487917,-0.9424892291,7.466507245
8.607352,2.942791371,-5.855160849,-1.684713807,6.766179885
8.617367,3.721766796,-4.025230272,-1.304606198,5.635248367
8.627382,3.259525688,-1.056595377,0.1534754506,3.429935307
8.637397,1.66741862,3.867455437,3.140352416,5.253504517
8.647411,-4.801535566,10.79910097,4.76971648,12.74462713
8.657426,-12.37179499,21.25471777,0.5640340432,24.59964376
8.667441,-12.69847775,25.47611745,-5.421324345,28.97714022
8.677456,-8.368804014,20.73284676,-3.691189367,22.66081848
8.687471,-2.178598292,18.13616846,-1.955070348,18.37087904
8.697485,0.6024933001,18.92938536,-3.920041201,19.34040722
8.7075,0.8549539257,20.79464481,-5.54091043,21.53717455
8.717515,0.9927598616,22.63838885,-5.078954666,23.22235997
8.72753,0.5218777379,21.39113565,-3.53183286,21.6870211
8.737544,-0.5679561362,17.3406536,-1.954558132,17.45970042
8.747559,-1.369709682,13.41160651,-1.342408447,13.54803876
8.757574,-1.61199988,10.20972385,-0.6243703651,10.3550395
8.767589,-1.612453916,6.940176033,0.4246856117,7.137675312
8.777603,-1.337097714,3.447251131,1.478498883,3.982126267
8.787618,-0.7283182912,-0.1541074616,2.014319015,2.147481719
8.797633,0.08663497835,-3.36201276,2.190999652,4.013865331
8.807648,0.8540864182,-6.091674875,2.102737101,6.500728398
8.817663,1.448549152,-8.036359983,1.37732568,8.28120779
8.82767675,1.56368726,-9.009943024,0.8228482533,9.181572327
8.83769175,1.390663764,-9.369309974,1.127147881,9.538782807
8.84770675,1.386179827,-9.777611688,1.431667364,9.978619958
8.85772175,1.706418379,-10.52710721,1.746444032,10.80656821
8.86773575,2.288755742,-11.58122687,1.588470976,11.91161025
8.87775075,2.719637648,-12.21971592,1.133720151,12.56993268
8.88776575,2.572169993,-12.12334562,0.9077661967,12.42640765
8.89778075,2.00179194,-11.20389669,0.525513829,11.3934471
8.90779475,1.207108262,-10.33670549,0.3538442552,10.41296291
8.91780975,0.6566154206,-9.797587531,0.3759397137,9.826759176
8.92782475,0.508752493,-9.389160687,0.5203483987,9.417320742
8.93783975,0.3775778477,-9.091086005,0.6903994632,9.125078696
8.94785475,0.2751366395,-8.812439867,0.6539490902,8.840952776
8.95786875,0.2146817287,-8.627281351,0.478720901,8.643219623
8.96788375,0.1723095881,-8.593855158,0.05251621921,8.595742843
8.97789875,0.02759878479,-8.7169332,-0.08501270492,8.717391426
8.98791375,-0.1605675385,-8.926136051,0.1876160638,8.929551306
8.99792775,-0.2379957104,-9.083682845,0.4939260006,9.100214222
9.00794275,-0.0178506723,-9.076090236,0.4378979802,9.086665354
9.01795775,0.5537930835,-8.690508463,-0.2070826141,8.710597416
9.02797275,1.057330372,-7.849582958,-0.04416285038,7.920596599
9.03798675,1.690855722,-6.447700726,0.4174795397,6.678781842
9.04800175,2.62456046,-4.579728749,-0.1933159661,5.282007581
9.05801675,3.064289788,-2.135297906,-0.01137981456,3.734902751
9.06803175,3.331176006,1.975924442,3.120788802,4.973965594
9.07804675,2.425452827,8.539094814,4.323380967,9.873732053
9.08806075,-2.418564807,18.9893544,1.752670147,19.22282209
9.09807575,-7.458598943,29.48948957,-3.956511455,30.67433253
9.10809075,-8.034350295,26.62013221,-6.436707376,28.54143349
9.11810575,-4.920376423,17.17760633,-7.450545573,19.35951685
9.12811975,-1.089251491,16.59210708,-6.75355162,17.94700381
9.13813475,-0.543207467,19.46686844,-5.047774973,20.11800371
9.14814975,-1.673910491,21.09215115,-3.842465022,21.50454263
9.15816475,-1.794452596,20.67070723,-3.248909483,21.0012764
9.16817875,-1.494887167,17.54756668,-2.17716397,17.74519166
9.17819375,-1.542273587,13.46891624,-1.338428832,13.6228376
9.18820875,-1.382885213,10.32187461,-0.4782519178,10.42507515
9.19822375,-1.066749359,7.657859189,0.7766833162,7.770714158
9.20823875,-0.7369403031,5.038396624,1.801824181,5.40139722
9.21825275,-0.4219938825,2.127187818,2.505885079,3.313980519
9.22826775,-0.1042572803,-0.745995959,2.76826134,2.868911012
9.23828275,0.3961856979,-3.164896104,3.078654935,4.433017783
9.24829775,0.7296103066,-5.230342587,3.046937299,6.096937074
9.25831175,0.9257419994,-6.760458351,2.080190238,7.133581625
9.26832675,0.5846195313,-7.708518881,0.9019318449,7.783092212
9.27834175,-0.09535286626,-8.441579044,0.7430536401,8.474755315
9.28835675,-0.0296126755,-9.877210236,1.235996139,9.95428779
9.29837075,0.8493288311,-11.56620654,1.391506348,11.68053009
9.30838575,1.657636813,-13.06966602,0.5655883062,13.18650143
9.31840075,1.812245089,-13.76416555,-0.4394814062,13.88991107
9.32841575,1.338518295,-13.11160108,-0.7237297618,13.19960223
9.33842975,0.6132901838,-11.45089477,-0.848773638,11.49867526
9.34844475,0.04379155219,-10.04102934,-0.7799565876,10.07137131
9.35845975,-0.3875926298,-9.571427169,-0.3023045576,9.584040596
9.36847475,-0.4831849213,-9.640983308,0.1554049587,9.654334649
9.37848975,-0.2717130582,-9.700400959,0.351267972,9.710561052
9.38850375,-0.01726532947,-9.550522204,0.5944758904,9.569021582
9.39851875,0.2558355653,-9.206863214,0.7169411445,9.23827834
9.40853375,0.4739300214,-8.716246737,0.8362453938,8.769086224
9.41854875,0.6605342245,-8.205383692,1.178341423,8.315835226
9.42856275,0.8196223444,-7.783294244,1.740058873,8.017434437
9.43857775,0.9935676545,-7.466366969,2.118599428,7.824466496
9.44859275,1.189456103,-7.198208397,1.792007875,7.512676099
9.45860775,1.211574073,-7.176538031,1.065894789,7.355728485
9.46862175,1.268335627,-7.20739028,0.3333871865,7.325728423
9.47863675,1.586822062,-7.117387013,-0.5715723467,7.314499101
9.48865175,2.420623612,-6.752993796,-0.1911828836,7.176273042
9.49866675,3.465659043,-5.340973077,1.40932983,6.520965924
9.50868075,4.255871939,-2.776402418,1.956628046,5.445112456
9.51869575,3.26359418,0.3933860511,2.536598164,4.152123529
9.52871075,1.091550982,5.233040493,2.966967269,6.113844218
9.53872575,-1.800071771,13.13694175,-0.003579628877,13.25969493
9.54874075,-6.346070856,24.89369034,-2.715984893,25.83302165
9.55875475,-8.519723573,29.0381009,-3.337638642,30.44563721
9.56876975,-6.504308791,20.92641767,-6.319226289,22.80687638
9.57878475,-3.667109363,16.09904296,-9.017522185,18.81336179
9.58879975,-1.553623033,17.92679487,-5.486299775,18.81178365
9.59881375,-0.5559420083,19.58437058,-4.064625303,20.0094433
9.60882875,-0.7924597619,19.25103601,-5.616267006,20.06920116
9.61884375,-1.00828802,17.09852391,-4.463497796,17.70025359
9.62885875,-1.256096235,13.99913942,-1.965319347,14.19211621
9.63887275,-1.28176405,11.64635082,-1.179751772,11.77591698
9.64888775,-1.729012898,9.822606597,0.04833308458,9.973736614
9.65890275,-1.990321749,7.449044008,1.531416185,7.860971494
9.66891775,-1.319681489,4.404667205,2.950096883,5.463124018
9.67893175,-0.5872118944,0.8602523071,3.518446244,3.669375398
9.68894675,0.1403689168,-2.496017902,3.511766385,4.310720583
9.69896175,0.6600573841,-5.361784487,3.130461266,6.243732567
9.70897675,0.7732580904,-7.297505229,2.526414653,7.761074773
9.71899075,0.5196523608,-8.03637694,1.852730041,8.263534444
9.72900575,-0.1886609612,-8.510378553,1.938864205,8.730482832
9.73902075,0.05215047587,-9.358212544,2.30902687,9.639007561
9.74903575,1.134626762,-10.8254532,2.451346929,11.15737051
9.75905075,2.339726214,-12.61638752,1.300598516,12.89725201
9.76906475,2.845203973,-13.73646846,-0.356583091,14.0325658
9.77907975,2.407567656,-13.32287619,-0.8570673287,13.56576486
9.78909475,1.408857375,-11.7850842,-0.555455118,11.88198717
9.79910975,0.7013416502,-10.36620469,-0.3142761469,10.39465485
9.80912375,0.3396881096,-9.569516884,-0.1760643776,9.577162423
9.81913875,0.02262846876,-9.251772754,0.1699973067,9.253362103
9.829154375,-0.2119758931,-9.095615258,0.6392901206,9.12051767
9.839169375,-0.3440437736,-9.002855029,0.9559635528,9.060001717
9.849183375,-0.3348241398,-8.862568631,0.9020347559,8.914645066
9.859198375,-0.3250432098,-8.69702577,0.7059717679,8.731684057
9.869213375,-0.1649414385,-8.546514931,0.5944256774,8.568749327
9.879228375,0.05904814381,-8.553811671,0.6566727964,8.579184107
9.889242375,0.2074218623,-8.743608783,1.207235001,8.828993981
9.899257375,0.5231895973,-8.596827298,1.778084486,8.794359066
9.909272375,0.925818598,-7.886334463,1.575885429,8.095358313
9.919287375,1.223030231,-6.867255991,0.5566398004,6.99748924
9.929301375,1.60621903,-5.65180229,0.7934566391,5.928944437
9.939316375,2.142497583,-4.074835126,1.63573519,4.885714565
9.949331375,2.097368188,-1.806417754,2.448049099,3.695273036
9.959346375,2.179350098,2.240613862,3.169720641,4.451634113
9.969360375,1.259940195,8.788519492,1.694824812,9.038692123
9.979375375,-2.051518416,19.91684443,0.2303966689,20.0235487
9.989390375,-6.345815333,29.2050506,-4.195156206,30.17952432
9.999405375,-6.980606021,24.80261644,-5.411647203,26.32839851
10.00942038,-2.337463926,18.78050005,-4.789191216,19.52196896
10.01943438,0.1112655338,20.43730977,-4.046130559,20.83427904
10.02944938,-0.5057794031,21.16610205,-4.008918879,21.54834378
10.03946438,-2.267135955,20.21709661,-4.088628123,20.75060917
10.04947938,-2.552390616,17.58798731,-3.516347094,18.11675171
10.05949338,-2.082239102,14.22677387,-1.800087558,14.49058762
10.06950838,-1.511376607,11.45683321,-0.7313065108,11.57920963
10.07952338,-1.051629702,9.18368602,-0.08089396276,9.244055267
10.08953838,-0.6493227732,6.961480363,0.5373533443,7.012316131
10.09955238,-0.2219327512,4.179127234,1.198592743,4.353272694
10.10956738,0.04479734637,0.6554331136,1.95857283,2.065818699
10.11958238,0.5694286843,-2.830493256,2.40541705,3.757921272
10.12959738,1.26006094,-5.956477894,2.296921964,6.507167815
10.13961138,1.609838164,-8.371075072,1.429717902,8.64352764
10.14962638,1.006063154,-9.581210146,0.586349357,9.65171262
10.15964138,-0.01051292829,-9.899539583,1.175801539,9.969127531
10.16965638,-0.2011164076,-10.35802093,1.948539008,10.54162462
10.17967038,0.3917172557,-11.05020847,2.191804229,11.27229149
10.18968538,1.099315427,-11.65474274,1.51179176,11.80368744
10.19970038,1.348543931,-11.72488594,0.6011499389,11.81748291
10.20971538,1.001109393,-11.24386124,0.3749071685,11.29456466
10.21972938,0.6144947103,-10.49644207,0.7954213035,10.54445802
10.22974437,0.5161898589,-10.17743786,0.8840346873,10.22879322
10.23975938,0.3056684607,-10.20732532,0.7179784405,10.23710977
10.24977437,-0.02210041037,-10.18432705,0.4604098336,10.19475273
10.25978837,-0.4099810338,-10.10476282,0.2980127013,10.11746646
10.26980338,-0.8515712383,-10.01731186,0.3931293583,10.06112624
10.27981838,-1.126105322,-9.876779881,0.6337914721,9.960953049
10.28983338,-1.118338173,-9.521038204,0.8524983875,9.62432347
10.29984738,-0.890908674,-9.095698873,0.9782625675,9.191433725
10.30986238,-0.5891335453,-8.763767059,0.9749601332,8.837490518
10.31987738,-0.3544143587,-8.557954423,0.905088172,8.612977305
10.32989238,-0.03466934759,-8.238475424,0.792129248,8.276542033
10.33990638,0.1556718841,-7.499001449,0.6180892861,7.526040848
10.34992138,0.3302218329,-6.456025992,1.151666499,6.566251122
10.35993638,0.6818879637,-5.308750241,2.086290053,5.744598028
10.36995138,1.888374082,-3.699650288,0.8493642068,4.23966844
10.37996538,2.452205885,-1.616650463,0.2119253147,2.944789425
10.38998038,2.801003701,1.604742608,2.471664834,4.065703829
10.39999538,3.261422817,6.571275197,3.178573326,7.995115065
10.41001038,0.03489040889,16.09580828,0.1069468168,16.09620139
10.42002438,-6.280428843,30.36231749,-6.645974547,31.70935331
10.43003938,-7.389491286,32.28237003,-8.109828494,34.09582547
10.44005438,-3.073316427,20.61919794,-7.383841707,22.11600587
10.45006938,0.2039070278,17.49380621,-6.199393451,18.56090819
10.46008438,-0.6165259599,19.07930797,-5.091436132,19.75658925
10.47009838,-1.925031154,19.55421181,-4.324552749,20.11901342
10.48011338,-2.705338575,17.86024303,-3.940025815,18.48867062
10.49012838,-1.540325587,15.03553033,-2.957049222,15.40077645
10.50014338,-0.2049571878,12.82920746,-1.701616938,12.94318631
10.51015737,0.221770564,10.53881099,-0.4434773934,10.55046878
10.52017238,0.6946708542,7.992899383,0.4178736055,8.03390481
10.53018737,0.9683815771,4.717180417,1.374069951,5.007756203
10.54020238,1.250846313,0.942626127,2.2919951,2.776040715
10.55021638,1.404926,-3.127065788,2.509374697,4.248448997
10.56023137,1.483707291,-6.81517718,2.133640805,7.293863887
10.57024638,1.489960595,-9.378029927,1.741501966,9.654028019
10.58026138,0.8304060718,-10.30121874,1.043192389,10.38715226
10.59027538,-0.2298063925,-10.27495656,0.5798870873,10.29387256
10.60029038,-0.7111924544,-10.3570807,0.9655822957,10.42627759
10.61030538,-0.4919177744,-11.25511362,1.323392133,11.34332105
10.62032038,0.01242328674,-12.20905879,1.64864935,12.31987482
10.63033438,0.697885361,-12.52716135,1.769634089,12.67077031
10.64034938,1.211417076,-11.56705088,1.651163653,11.74693742
10.65036438,0.9929545739,-10.33898123,1.234578774,10.45966904
10.66037938,0.5231112081,-9.93669396,1.25506274,10.02929283
10.67039338,0.2210425857,-9.815109297,1.2686505,9.899227466
10.68040838,-0.07905082902,-9.852329164,1.291278055,9.936902837
10.69042338,-0.2818886752,-9.822560989,1.456175383,9.933912238
10.70043838,-0.3508542815,-9.612878666,1.500342911,9.735582357
10.71045238,-0.4898630628,-9.327380176,1.469910493,9.4551903
10.72046738,-0.3482084529,-9.057691387,1.613570734,9.206879651
10.73048238,-0.07461485714,-8.825907758,1.76051945,9.000091326
10.74049738,0.2393788875,-8.680741859,1.485743583,8.810222215
10.75051138,0.4761490032,-8.635587906,1.107896508,8.719376756
10.76052638,0.7899243361,-8.280024569,0.1612627176,8.319182231
10.77054138,0.8706357926,-7.614457061,-0.6028257509,7.687741015
10.78055638,1.125836935,-6.718294079,-0.6670784283,6.84455826
10.79057038,1.923976024,-5.543245223,0.2873321772,5.874675406
10.80058538,3.343001708,-3.88968655,1.806381501,5.437677446
10.81060037,4.47523959,-0.8205584836,2.881133652,5.385352053
10.82061538,4.617183089,4.010285373,3.11046145,6.861176202
10.83062888,2.071030867,11.66784518,-0.2994125247,11.85400472
10.84064388,-4.861413393,22.43033556,-4.269999397,23.34493925
10.85065888,-7.805482088,29.28672217,-5.441334686,30.79359948
10.86067388,-4.295259953,24.78050695,-4.144304141,25.48917495
10.87068788,-1.348968439,18.28680793,-2.995163713,18.57950661
10.88070288,-0.706047197,17.8817561,-4.291565098,18.40307678
10.89071788,-2.063819203,18.42178857,-5.463958733,19.32553981
10.90073288,-4.004230289,16.72137382,-3.904514505,17.63188691
10.91074688,-2.775092057,14.24907982,-3.329099368,14.89363335
10.92076188,-1.393607252,12.0710107,-2.684093009,12.44410687
10.93077688,-1.216732779,10.6936172,-1.521042055,10.8695656
10.94079188,-1.273136191,9.840424232,-0.538170712,9.937024331
10.95080588,-1.030094041,8.449973307,0.757995615,8.546209685
10.96082087,-0.3004509537,5.865444347,1.67097285,6.106214739
10.97083588,0.583014763,2.131314783,2.33729231,3.216417924
10.98085087,1.596341913,-1.905871875,2.402009293,3.456921138
10.99086487,2.150286367,-5.44661823,2.132763723,6.232019151
11.00087988,1.686519427,-7.738962994,1.751135838,8.111866167
11.01089488,1.097291778,-8.714993094,1.440812409,8.901184993
11.02090888,0.3612646642,-8.803743303,1.339155056,8.91233665
11.03092388,-0.04218386024,-8.736076984,2.096426786,8.984198675
11.04093888,0.1320219251,-9.343376403,2.582866012,9.694705217
11.05095388,0.648453877,-10.36957152,2.783160045,10.75613712
11.06096888,1.183300447,-11.54780769,1.879320838,11.7594179
11.07098288,1.055550772,-12.00738598,0.7428478181,12.07656112
11.08099788,0.3576607329,-11.43506051,0.1266600466,11.44135363
11.09101288,-0.2819118083,-10.69144437,-0.01787435581,10.69517538
11.10102788,-0.4328535873,-10.24764538,0.1503582269,10.25788505
11.11104188,-0.470046849,-9.985117092,0.2621569902,9.999611676
11.12105688,-0.6058405387,-9.857149608,0.1727922392,9.877261681
11.13107188,-0.8770487264,-9.754602309,-0.1049855876,9.794513906
11.14108588,-1.146805635,-9.592600522,-0.3913822103,9.668832813
11.15110088,-1.247637361,-9.314418068,-0.572019074,9.414998075
11.16111588,-1.231312519,-9.10536666,-0.1537420106,9.189530409
11.17113088,-1.107064449,-8.908859868,0.5915967214,8.996852923
11.18114488,-0.8108219925,-8.465478369,0.9500906825,8.557127358
11.19115988,-0.3361850792,-7.61285317,1.123817307,7.702695576
11.20117488,0.1479441856,-6.584749521,0.4597572112,6.602438219
11.21118988,0.6731434527,-5.459937603,0.2344382644,5.506269339
11.22120388,1.497314054,-4.154283584,0.6929663908,4.469924372
11.23121888,2.410880396,-2.813742152,1.230940636,3.9044467
11.24123388,2.933957398,-0.9076129997,3.263168503,4.481086481
11.25124888,3.896999955,2.923142388,4.462977394,6.606779646
11.26126288,2.806984525,9.086797657,1.373605682,9.6091543
11.27127787,-3.354576856,19.19287259,-3.490813472,19.79407292
11.28129288,-6.54364301,30.16596097,-7.416029459,31.74589671
11.29130787,-2.210274121,30.1015995,-7.828164607,31.18127266
11.30132188,1.392901493,21.51180347,-4.175708367,21.95755915
11.31133688,1.529903218,17.38398965,-5.14986268,18.19518578
11.32135188,0.3621551952,17.33178805,-4.338236403,17.87015189
11.33136688,-1.667771207,17.55028329,-3.100798341,17.89996801
11.34138088,-2.484707926,15.40811959,-1.537748719,15.68274829
11.35139588,-2.152990704,11.68682992,-0.394975909,11.89005335
11.36141088,-1.486706035,9.068761336,0.2389148927,9.192921588
11.37142588,-0.7651587465,7.155679843,0.9211820483,7.255191127
11.38143988,-0.1702188613,5.222644143,1.381000071,5.404826316
11.39145488,0.4137627205,2.905874975,1.800006866,3.443157516
11.40146988,0.8175123766,0.1094692326,1.655009952,1.849153303
11.41148488,1.205663415,-2.887781936,1.60087409,3.515068511
11.42149888,1.576621594,-5.532041958,1.735265325,6.008358314
11.43151388,0.9296485242,-7.311492353,1.645262643,7.551758469
11.44152888,-0.2079082775,-8.207464716,1.739340835,8.392318479
11.45154388,-0.6995962563,-8.733091396,1.801361082,8.944340222
11.46155788,-0.3226075521,-9.493610085,1.651118045,9.641519531
11.47157288,0.2562553954,-10.69095788,1.566487784,10.80815115
11.48158788,0.6365167862,-11.90913872,1.028004831,11.97036059
11.49160288,0.5820651752,-12.55113961,0.2198787157,12.56655291
11.50161688,0.08588273406,-12.52476984,0.2552122521,12.52766414
11.51163188,-0.4690782577,-12.19389345,0.7541727054,12.22619517
11.52164688,-0.7136573482,-11.92891752,0.8723882031,11.98204662
11.53166188,-0.8179591039,-11.68724859,1.012183435,11.75947924
11.54167588,-0.884557136,-11.31501951,1.156774553,11.4083406
11.55169087,-0.9762420622,-10.60614051,1.065362692,10.70412363
11.56170588,-1.050833238,-9.795046915,1.051767915,9.907240298
11.57172087,-0.7785971099,-8.990676448,1.079281404,9.088637126
11.58173487,-0.4436896473,-8.39246945,1.081350149,8.473471668
11.59174988,-0.1619909701,-8.14246005,1.2462428,8.238872366
11.60176488,0.1999905993,-8.119405648,1.589668486,8.275976692
11.61177988,0.7691830927,-7.925487419,1.578778632,8.117729696
11.62179388,1.506306487,-7.175892498,0.7165588097,7.367214461
11.63180888,1.982830296,-5.856930217,-0.009813893661,6.183473446
11.64182388,2.411207255,-3.959858401,-0.4236611795,4.655522288
11.65183888,2.951840522,-1.963998461,-0.4608073711,3.575331573
11.66185288,3.550758542,1.039332642,1.363163724,3.942881422
11.67186788,3.446730144,5.498573665,2.392991863,6.916695099
11.68188288,0.2568132929,11.55204108,-0.3690141984,11.5607862
11.69189688,-5.712659526,20.95972574,-2.196747465,21.83506999
11.70191188,-7.319362705,27.47171602,-3.150342969,28.60407161
11.71192688,-5.109204066,24.19136723,-3.996704046,25.04595492
11.72194188,-1.297428741,20.15135286,-4.529278972,20.69479914
11.73195588,-0.4469454501,19.27497802,-4.435886074,19.78387281
11.74197088,-1.127950192,19.26623761,-5.307380823,20.01570569
11.75198588,-1.832943648,18.94573768,-5.153761604,19.71958208
11.76200088,-2.343973046,17.00003107,-3.005019779,17.42198065
11.77201488,-2.093745838,14.41570559,-2.092036697,14.71641793
11.78202988,-1.217674474,12.2390094,-0.82867208,12.32731842
11.79204488,-0.9032759006,9.281190096,0.3372977313,9.331139625
11.80205988,-0.2588375258,6.200776318,0.7959990084,6.257015121
11.81207388,0.6636941329,3.017530482,1.409569566,3.396007431
11.82208888,1.486752228,-0.439542802,1.961487082,2.500212318
11.83210354,2.313053555,-3.668339617,2.121201439,4.827673129
11.84211854,2.466785917,-6.647508856,1.91644715,7.34487416
11.85213254,1.990840105,-8.620765799,1.408177929,8.959018493
11.86214754,0.741346911,-9.304015287,1.340488368,9.429273819
11.87216254,-0.2717159818,-9.606303472,1.545067095,9.733556816
11.88217754,-0.3236687852,-10.12212554,1.844628139,10.29392247
11.89219154,0.191779866,-10.97015541,2.211985309,11.19258542
11.90220654,0.7836412105,-11.84767513,1.691346889,11.99342128
11.91222154,0.8314837137,-12.20144922,0.8671689785,12.2604531
11.92223654,0.6309215856,-11.7018561,0.4303270054,11.7267506
11.93225054,0.3839586584,-10.75457091,0.5791434677,10.77699526
11.94226554,0.2018563728,-10.25992336,0.915541751,10.30266908
11.95228054,0.03875739187,-10.22327302,1.176306592,10.29079737
11.96229554,-0.04616314631,-10.21005012,1.098777264,10.26910736
11.97230954,-0.1862785132,-10.15993948,1.066615239,10.2174722
11.98232454,-0.2682872476,-10.04742268,1.10967165,10.11207455
11.99233954,-0.2985363194,-9.860166771,1.225768189,9.940549298
12.00235454,-0.1991676037,-9.634129202,1.459973735,9.746160091
12.01236854,-0.1167855611,-9.217575898,1.809789258,9.394289832
12.02238354,-0.1832389112,-8.652626107,2.425368919,8.987988064
12.03239854,0.0256552434,-7.918077242,2.749660177,8.381958989
12.04241354,0.4912754212,-7.121485326,2.515938781,7.568807881
12.05242754,0.9523424453,-6.424867349,2.381409552,6.917874532
12.06244254,1.194999556,-5.882822272,0.879383885,6.06703699
12.07245754,1.061263355,-5.658885022,-0.4406928031,5.774380465
12.08247254,1.423782393,-5.321617624,-0.1073350719,5.509835864
12.09248654,2.545894944,-4.030831904,1.417627029,4.973816774
12.10250154,4.077255873,-1.044416796,3.454658968,5.44513457
12.11251654,4.977772692,3.729722518,2.27972998,6.624667525
12.12253154,2.825602937,9.71533124,-0.8317559747,10.15202005
12.13254554,-1.290238712,19.87182087,-4.858939143,20.49788453
12.14256054,-5.369799265,30.35367296,-8.851891615,32.07079967
12.15257554,-7.006572336,30.5569175,-9.160424627,32.66084265
12.16259054,-6.489391959,24.28066591,-7.091858654,26.11431416
12.17260454,-6.393728587,19.91439094,-5.717381737,21.68296994
12.18261954,-7.174771587,17.87290576,-5.289752637,19.97247082
12.19263454,-7.178362947,16.76300599,-4.210430303,18.71510053
12.20264954,-5.637664892,15.747499,-2.490786399,16.91067731
12.21266354,-3.812792741,13.62109354,-1.77164904,14.25518565
12.22267854,-2.135712182,11.84157883,-1.228169056,12.09515005
12.23269354,-0.7656683314,9.981625135,-0.008766145706,10.01095226
12.24270854,0.4807329645,7.71266865,1.258849397,7.829499581
12.25272254,1.645105353,4.879502631,2.307424732,5.642705596
12.26273754,2.192138982,1.225364732,2.914404309,3.847173575
12.27275254,2.343279859,-2.449103937,3.180633885,4.648171953
12.28276754,2.139245654,-5.275064431,2.825540664,6.355026103
12.29278154,1.492502672,-7.257456479,2.399140649,7.788075155
12.30279654,0.811487698,-8.914529328,1.915022768,9.153942191
12.31281154,0.3757409084,-10.53337074,1.932845081,10.71582804
12.32282554,0.6527273145,-12.05454027,2.204608462,12.27184959
12.33284054,1.507611001,-13.34517981,1.977855778,13.57492646
12.34285554,2.287854686,-14.28253291,1.302326953,14.52312229
12.35287054,2.625209793,-14.43172696,0.7701519033,14.68875772
12.36288454,2.349761205,-13.30290093,0.8302460774,13.53432153
12.37289954,1.608908165,-11.83003525,0.9720061199,11.97844378
12.38291454,0.9640997341,-10.5602539,1.227956218,10.67503289
12.39292954,0.4685739353,-9.545125224,1.35254518,9.651857621
12.40294354,0.1248935845,-8.81662238,1.130616376,8.88969752
12.41295854,-0.08404992431,-8.38328055,0.703100785,8.41313306
12.42297354,-0.263929866,-8.257644936,0.4693185782,8.275180892
12.43298854,-0.3522368556,-8.28586009,0.6032290991,8.315253068
12.44300254,-0.4139574328,-8.428927424,0.7553690457,8.472824834
12.45301754,-0.5446266228,-8.685780405,0.7936167797,8.738948849
12.46303254,-0.6035674337,-8.80974547,0.8793978453,8.874077386
12.47304754,-0.5610958904,-8.685689188,0.6907877183,8.731163321
12.48306154,-0.4554645144,-8.311113045,0.4725742348,8.336988328
12.49307654,-0.3025913635,-7.732149233,0.2540124035,7.742235827
12.50309154,0.2444755948,-7.0424643,0.004165556431,7.046707677
12.51310654,0.822636584,-6.387206603,1.073558149,6.528833451
12.52312054,1.520279286,-5.256498352,1.329461542,5.631118186
12.53313554,2.291322378,-3.225918816,2.453334982,4.6557022
12.54315054,3.207619662,0.08984363794,3.472639157,4.728225723
12.55316554,3.754114763,5.634396883,2.189746009,7.115812917
12.56317954,-0.3124714769,14.43466577,-0.1823209349,14.43919857
12.57319454,-8.852268176,29.24260375,-4.057625016,30.82136997
12.58320954,-9.783578771,35.55595476,-7.410805557,37.61468293
12.59322354,-2.922714079,25.50276205,-3.61249403,25.92263958
12.60323854,0.8864310224,18.53895975,-3.548672841,18.89634535
12.61325354,0.8579661188,17.50922999,-4.846448321,18.18783391
12.62326854,-1.286987368,17.4208505,-5.092266437,18.19542651
12.63328254,-3.115610215,17.94359743,-4.360501431,18.72681736
12.64329754,-3.668817042,15.62993839,-2.577541537,16.26034787
12.65331254,-3.383729027,11.76132345,-1.057789378,12.28402499
12.66332754,-2.361906164,9.502993112,0.09721931577,9.792595693
12.67334154,-1.42585874,7.986586145,1.185541538,8.199032878
12.68335654,-0.6601306935,6.146667354,1.509582828,6.363657156
12.69337154,0.03102448571,3.64192599,1.659245675,4.002209845
12.70338654,0.7232540908,0.7433062398,1.982385031,2.237286539
12.71340054,1.230093082,-2.219898931,2.027430811,3.248315863
12.72341554,1.501001893,-4.825635742,1.665194632,5.320962334
12.73343054,1.500910676,-6.883657431,1.096624246,7.130221401
12.74344554,0.7241121697,-8.27581165,0.6106750897,8.329845195
12.75345954,-0.2153462282,-9.256508998,0.6625012279,9.282684995
12.76347454,-0.5416340178,-10.32128054,1.175326672,10.40209556
12.77348954,-0.1325335564,-11.6299564,1.46273479,11.722331
12.78350454,0.8426282144,-12.6841053,1.111031785,12.76052276
12.79351854,1.795866745,-12.89932961,0.5685973565,13.03614762
12.80353354,2.288835264,-11.88271399,0.5538459277,12.11381046
12.81354854,1.948981057,-10.75332195,0.8927504738,10.96491967
12.82356254,1.019335164,-10.1587794,1.305711322,10.2929454
12.83357792,0.2681255355,-9.741703352,1.427577821,9.849398658
12.84359292,-0.04670962343,-9.490792311,1.268768613,9.575337816
12.85360792,-0.3493559325,-9.524088696,1.087785521,9.592371573
12.86362192,-0.6407987022,-9.599585606,0.6138336825,9.640511323
12.87363692,-1.069752781,-9.681993924,0.5872336753,9.758597274
12.88365192,-1.523736744,-9.764748398,0.8599384578,9.92026104
12.89366692,-1.753804215,-9.746694535,1.08058431,9.962005121
12.90368092,-1.591072695,-9.484357451,1.185190998,9.689645312
12.91369592,-1.128032857,-9.097159508,1.596020755,9.304732747
12.92371092,-0.6873670971,-8.581328083,1.968582094,8.831023761
12.93372592,-0.2560422644,-8.02985554,1.607366838,8.193153593
12.94373992,0.2862750737,-7.608703986,0.8056681835,7.656593954
12.95375492,0.7051338619,-7.390229205,0.4917474742,7.440061629
12.96376992,1.418878918,-6.837904723,0.9782239759,7.051743084
12.97378392,2.313903447,-5.308566054,1.675671673,6.028507134
12.98379892,3.175814025,-2.84651872,1.770295994,4.617619674
12.99381392,4.375290501,1.050528306,1.959583375,4.907824742
13.00382892,5.068264201,7.831948341,0.53811721,9.344318432
13.01384292,1.153018594,21.57406463,-5.307201898,22.24715956
13.02385792,-5.165647824,39.34572234,-8.256474323,40.53318581
13.03387292,-8.609188896,31.57678418,-5.796506259,33.23869608
13.04388792,-6.409347085,15.0966197,-5.171392128,17.19682974
13.05390192,-2.115205412,14.77131687,-4.902551186,15.70671526
13.06391692,-3.354752272,16.14618789,-5.301021391,17.32208342
13.07393192,-6.195870504,18.8205371,-5.341307538,20.52147642
13.08394692,-6.63433391,19.62879421,-4.398172703,21.18130949
13.09396092,-4.361652456,16.89400467,-3.286911707,17.75486397
13.10397592,-1.36842154,14.07044972,-2.307198007,14.32387153
13.11399092,0.9722665402,11.73717211,-1.284265928,11.84718745
13.12400492,1.904832533,9.131504883,-0.2951091202,9.332730458
13.13401992,2.425413651,6.14960441,0.5636714427,6.634605585
13.14403492,2.6519342,2.905902457,1.408855914,4.17874372
13.15404992,2.41642765,-0.3209905046,2.029654068,3.172010896
13.16406392,1.889142114,-3.412343838,2.084615264,4.422507117
13.17407892,1.27827794,-6.1734821,1.846089942,6.56916462
13.18409392,0.6087764623,-8.304229118,1.140596769,8.404272189
13.19410892,-0.2424284846,-9.766704876,1.029170912,9.823771602
13.20412292,-0.6946711466,-11.43786367,2.233759025,11.67462944
13.21413792,-0.001504780948,-13.11739333,2.383942566,13.33226133
13.22415292,0.8972461787,-14.23892321,1.454899521,14.34115468
13.23416792,1.140626005,-14.45970355,1.070349197,14.5440607
13.24418192,1.013379191,-13.35369569,1.598764415,13.48718553
13.25419692,0.7463307121,-11.66091506,1.955219013,11.84722884
13.26421192,0.4161647567,-9.980308342,1.967492173,10.18090237
13.27422692,0.1413582017,-8.502905227,1.348871959,8.610391106
13.28424092,-0.1200839755,-7.628711988,0.332264448,7.63688853
13.29425592,-0.5267057839,-7.482709352,-0.1875459337,7.503567932
13.30427092,-0.771696226,-7.681490711,0.03997858286,7.720259898
13.31428492,-0.6745000067,-7.917515325,0.3068608542,7.952116873
13.32429992,-0.4238371807,-8.06382494,0.2040595671,8.077533715
13.33431492,-0.3299361598,-8.183629126,0.2866154547,8.19529084
13.34432992,-0.3568698969,-8.460193071,0.4864989404,8.481680502
13.35434392,-0.3542295867,-8.949929541,0.7615787888,8.989255789
13.36435892,-0.251280292,-9.264230831,1.032769215,9.325005466
13.37437392,-0.5598428321,-9.598411485,1.40697808,9.717124798
13.38438892,-0.7406197366,-9.669142329,0.956446679,9.744517496
13.39440292,-0.5194496816,-9.420707585,0.8592975298,9.474067321
13.40441792,-0.2547149464,-8.692528092,0.3652146777,8.703924752
13.41443292,0.3700477669,-7.354450677,0.06172912873,7.364013213
13.42444792,1.609798403,-5.005345237,0.1176975075,5.259161962
13.43446192,2.801921129,-1.991459325,0.6175362857,3.492566867
13.44447692,4.229757689,2.448064887,2.201502567,5.360082588
13.45449192,4.210166301,8.726371776,1.890946273,9.871714261
13.46450592,-0.5863058683,18.83507211,1.005024104,18.87097691
13.47452092,-9.357184603,34.67633004,-3.924737685,36.13043502
13.48453592,-10.46342752,36.41056509,-7.530869944,38.62546528
13.49455092,-4.934595097,23.78861569,-5.313403455,24.86927264
13.50456492,-1.702854794,18.9287983,-5.228018904,19.71119735
13.51457992,-1.35807343,19.02114455,-4.720118058,19.64504563
13.52459492,-2.175098442,19.16763016,-3.93703321,19.68830439
13.53460992,-3.374361202,18.23246742,-3.180407013,18.81287247
13.54462392,-2.557795782,15.09865219,-2.773564764,15.56291357
13.55463892,-1.020010518,11.84033571,-1.493320405,11.97764488
13.56465392,0.2428310836,9.26347771,0.133089718,9.26761561
13.57466792,1.141351645,6.93521467,1.147741774,7.121600753
13.58468292,1.73268875,4.320390701,1.716680389,4.961348372
13.59469792,1.991918039,1.213846886,1.623439519,2.841956651
13.60471292,2.180134648,-2.214815946,1.557660828,3.476306088
13.61472692,2.174269891,-5.651405264,1.466993902,6.230401442
13.62474192,1.874584009,-8.638143139,1.259825882,8.928535342
13.63475692,1.526555687,-10.82967138,1.480608559,11.03650108
13.64477192,1.266473874,-12.4741926,1.990071781,12.69526773
13.65478592,0.9701320142,-13.69597064,1.584160409,13.8213723
13.66480092,0.614023717,-14.31829916,1.109372345,14.37433209
13.67481592,0.1295392156,-13.83303523,1.347359869,13.8991015
13.68483092,-0.1345084718,-12.21707766,1.467419579,12.3056247
13.69484492,-0.1944985655,-10.37063221,1.243702769,10.44675254
13.70485992,-0.2733207867,-9.197479602,1.127427451,9.270352094
13.71487492,-0.4221531826,-8.90492937,0.9494907582,8.965350695
13.72488892,-0.4936932814,-8.930085846,0.6011336032,8.963901376
13.73490392,-0.5272729638,-9.019778041,0.2723422551,9.039280004
13.74491892,-0.5002719837,-9.078454265,0.1737944885,9.093888521
13.75493392,-0.4332438889,-9.069349566,0.2109662982,9.082142291
13.76494792,-0.1940720111,-9.040473676,0.3842790127,9.050718125
13.77496292,-0.01669057558,-8.995478767,0.7146070091,9.023833996
13.78497792,0.1140180648,-8.973878567,0.9276326235,9.022416469
13.79499292,0.2434687042,-9.018857104,1.115398559,9.090829138
13.80500692,0.4347931087,-9.008947243,1.261872407,9.10727717
13.81502192,0.6562002683,-8.814397514,1.311321141,8.935533866
13.82503692,0.7692441961,-8.357256932,0.4976413214,8.407325791
13.83505163,0.8133430195,-7.812731466,0.1181044006,7.855841679
13.84506662,0.9495220408,-7.219771759,1.047682978,7.356924356
13.85508163,1.300912512,-6.253634562,2.326400117,6.797974412
13.86509662,2.272096148,-4.294473503,2.454341873,5.443226764
13.87511063,3.302219425,-1.327648906,2.5732298,4.3919035
13.88512563,4.068320743,3.63312593,3.466728791,6.462897663
13.89514063,3.455686324,12.69460105,1.60688035,13.2543098
13.90515563,-2.567850654,29.70491971,-3.394215131,30.00827899
13.91516963,-9.722858945,41.84740911,-7.931117703,43.68801053
13.92518463,-7.857610601,28.94432091,-5.047169201,30.4136429
13.93519963,-2.289631948,18.36358772,-4.811418822,19.12102297
13.94521363,-1.231880869,17.90935145,-4.536966891,18.51611375
13.95522863,-1.786535174,17.0721249,-3.58099391,17.53489874
13.96524363,-3.090947537,16.5192461,-3.237056007,17.11484677
13.97525863,-2.98111373,14.87279764,-2.912299311,15.44566722
13.98527263,-1.859673901,12.3420502,-2.570420798,12.74329837
13.99528763,-0.5142570618,10.66240242,-1.105605569,10.73189868
14.00530263,0.6723894542,9.279371027,0.3287737334,9.309507312
14.01531663,1.588763922,7.216352892,1.190665015,7.484490834
14.02533163,1.909766121,4.128797325,1.649919366,4.83905031
14.03534663,1.785395552,0.2768083584,1.940067562,2.651060597
14.04536163,1.600189674,-3.667747879,2.046382806,4.494514889
14.05537563,1.350670271,-6.945698143,1.986301496,7.349314697
14.06539063,0.3265032595,-9.14091013,1.29975067,9.238625124
14.07540563,-0.9729176277,-10.64168223,1.377634413,10.7744998
14.08542063,-1.352085589,-12.10460413,2.186749896,12.37462935
14.09543463,-0.8988082623,-13.59849054,2.356404519,13.83038118
14.10544962,-0.1231838769,-14.47985071,1.669191788,14.57626331
14.11546463,0.6733647698,-13.9829707,0.9302861631,14.03005068
14.12547863,1.264715908,-12.11900465,0.618851763,12.20052284
14.13549362,1.26549505,-10.46419116,0.5444108605,10.55448519
14.14550863,1.150063996,-9.412374133,0.4482919908,9.492965802
14.15552362,0.8378156635,-8.979366764,0.4610997319,9.030148145
14.16553763,0.38792826,-8.969935205,0.4409010736,8.989138984
14.17555263,0.006073502898,-9.123894732,0.4274115837,9.133902377
14.18556763,-0.2242383814,-9.186718386,0.3529987844,9.196232147
14.19558263,-0.3411867875,-9.216988837,0.4078316339,9.23231381
14.20559663,-0.3748544705,-9.181950567,0.5672033437,9.207087038
14.21561163,-0.4268905967,-9.113591353,0.7637773418,9.155497734
14.22562663,-0.4131856003,-9.046851234,0.9100407636,9.101890671
14.23564063,-0.3578560299,-8.945590907,1.111058609,9.02142499
14.24565563,-0.249367083,-8.728045249,0.8267636219,8.770661087
14.25567063,-0.1549401051,-8.264853968,0.08229839087,8.266715828
14.26568563,0.04523435265,-7.519694746,-0.1302619314,7.52095894
14.27569963,0.5911763066,-6.764911591,-0.1474083797,6.792293242
14.28571463,1.223920469,-5.925147343,-0.4583258128,6.067570758
14.29572963,2.393649236,-4.413186598,-0.504855543,5.045854907
14.30574463,3.451984452,-1.856114994,0.7676996541,3.993835536
14.31575863,3.722089855,2.193167215,2.880205114,5.192255465
14.32577363,3.111065467,8.934564228,1.357521161,9.557616334
14.33578863,-2.540075211,23.02212758,-1.579515381,23.21562425
14.34580263,-11.1952089,40.35024124,-5.591930895,42.24623488
14.35581763,-6.26898058,37.58329202,-5.069900837,38.43836431
14.36583263,0.007446173318,23.96408362,-2.989014781,24.14977367
14.37584763,0.7671248728,20.79607855,-1.790583494,20.88711452
14.38586163,-0.3513351419,20.01892044,-2.199702502,20.1424751
14.39587662,-1.967336052,18.55570618,-2.376701374,18.81045859
14.40589163,-2.297604918,15.31996696,-1.938374208,15.61210014
14.41590563,-1.560264885,12.06147857,-1.085982386,12.21036648
14.42592062,-0.5453973224,9.555668923,-0.1588619057,9.572539053
14.43593563,0.1001537044,7.178181099,0.4314648005,7.191834017
14.44595062,0.6843282992,4.448311408,0.3596517098,4.514989363
14.45596463,1.249209969,1.079915242,0.2154745746,1.665284291
14.46597963,1.727950751,-2.734987174,0.2258018538,3.242985525
14.47599463,1.984646149,-6.481319293,0.4553132542,6.793646316
14.48600963,1.384990795,-9.157109256,0.3389314433,9.267455096
14.49602363,-0.113536839,-10.46633826,0.6985189799,10.49023622
14.50603863,-1.468359811,-11.29926829,1.61051381,11.50753227
14.51605363,-1.972829219,-11.97505673,2.162336601,12.32760067
14.52606763,-1.571364947,-12.34029136,1.986086318,12.5974806
14.53608263,-0.8121332306,-12.66953287,1.222042417,12.75421543
14.54609763,-0.206883553,-12.53620583,0.6350626568,12.5539859
14.55611263,0.2000309086,-11.49283451,0.7078077936,11.51634705
14.56612663,0.3286418787,-10.47891796,0.9814878917,10.52991195
14.57614163,0.3489355177,-9.757755128,1.104525003,9.826266667
14.58615663,0.3572502583,-9.335576802,0.9157055461,9.387179482
14.59617163,0.3058125946,-9.291954235,0.7829234648,9.329893032
14.60618563,0.2901244967,-9.397629209,0.732467914,9.430594691
14.61620063,0.3521435925,-9.313781891,0.6583111131,9.34365623
14.62621563,0.2548833463,-9.147284764,0.6955449399,9.177230892
14.63622963,0.1265808168,-8.919662599,0.9079497993,8.966648004
14.64624463,0.0868679899,-8.683451459,1.129138419,8.75698743
14.65625963,-0.02763101757,-8.602341222,1.364323665,8.709903389
14.66627463,-0.1805003312,-8.575672656,1.464460888,8.701688777
14.67628863,-0.161553306,-8.568313935,1.12285142,8.643083852
14.68630362,-0.06128085743,-8.50345545,0.2396775158,8.507053264
14.69631863,0.238879517,-8.07628828,-0.2560892614,8.083877629
14.70633263,0.7407814121,-7.464036854,0.6092986552,7.525413484
14.71634762,1.437106151,-6.54386345,1.597819505,6.887702818
14.72636263,2.364088345,-4.88977502,1.961395866,5.774589785
14.73637762,2.924062155,-2.545139192,2.405252159,4.562138856
14.74639163,3.535522453,1.37628663,3.217657285,4.9746761
14.75640663,3.827673613,7.987764943,1.076884046,8.922732391
14.76642163,-0.2344420651,19.72765192,-1.510712364,19.78680028
14.77643563,-6.793720822,35.25417295,-4.937975957,36.24079137
14.78645063,-6.549658626,29.5424022,-2.834058888,30.39216092
14.79646563,-2.72734691,15.66496321,-3.800417694,16.34847602
14.80648063,-0.7046386027,14.02147345,-5.723148261,15.16089243
14.81649463,-1.170317655,15.55223474,-6.225676686,16.79287644
14.82650963,-2.52813198,17.74150011,-4.78017364,18.54730001
14.83652417,-3.442015534,17.00660334,-3.955698692,17.7966171
14.84653917,-2.539817348,14.04381449,-4.036962125,14.83160344
14.85655317,-1.220180883,12.43791413,-3.085755794,12.87293432
14.86656817,0.05709718376,11.63570187,-1.53232952,11.73630486
14.87658317,0.8623260221,10.25293126,-0.4048810192,10.29709349
14.88659717,1.336830496,8.062630938,0.1359781694,8.173837745
14.89661217,1.502283602,5.317523403,0.6687530708,5.565980761
14.90662717,1.387270625,2.221882891,1.353217756,2.948301488
14.91664217,1.217828548,-0.7519987106,1.810722474,2.308099718
14.92665617,0.8931529085,-3.368169293,1.895258156,3.966647197
14.93667117,0.5815638495,-5.530847372,1.874812928,5.868851052
14.94668617,0.2447519305,-7.208822263,1.705476247,7.411860168
14.95670017,-0.4969858485,-8.356226068,1.384518925,8.484715769
14.96671517,-1.30760085,-9.524069985,1.385357416,9.712720743
14.97673017,-1.366163346,-11.07833007,1.492829239,11.26163126
14.98674517,-0.7408545023,-12.51641768,1.541089818,12.63267726
14.99675917,0.1697698134,-13.08010681,1.298468961,13.14549495
15.00677417,0.9271236965,-12.52252802,1.018791885,12.59806347
15.01678917,1.156243626,-11.50232922,0.8160011637,11.58906099
15.02680417,1.140241258,-10.71919643,0.4680368686,10.78982765
15.03681817,0.9821790326,-10.23180176,0.05373116098,10.27897515
15.04683317,0.6514163688,-9.940802214,-0.1304677534,9.962977154
15.05684817,0.3283729067,-9.780334736,0.01517703295,9.785857482
15.06686217,0.06032339414,-9.637984856,0.3395152147,9.644151677
15.07687717,-0.2311951062,-9.491868784,0.5154987911,9.508667793
15.08689217,-0.4720138523,-9.351214011,0.5357803702,9.378435966
15.09690717,-0.5267367741,-9.194995705,0.6857064879,9.235561219
15.10692117,-0.5815596834,-9.108945156,1.032681507,9.185723957
15.11693617,-0.6206339943,-9.081266191,1.290273503,9.193442658
15.12695117,-0.6101940832,-9.036136211,1.356983217,9.157810759
15.13696517,-0.6351125774,-8.903219644,1.089254415,8.99206112
15.14698017,-0.5362788454,-8.323583402,0.8197363651,8.381026391
15.15699517,0.02619203607,-7.302629728,0.240245792,7.306627472
15.16701017,1.114127593,-6.099966227,0.3224786941,6.209256056
15.17702417,3.177113568,-4.168281233,-0.4212545387,5.257953447
15.18703917,4.654590066,-1.372829171,-0.7300248011,4.907423441
15.19705417,4.853972518,2.749090658,1.228606428,5.712094398
15.20706917,4.419471771,9.489563227,0.7854237342,10.49763933
15.21708317,-2.51071371,23.04377631,-2.283771576,23.29237907
15.22709817,-11.65805695,39.22420082,-5.896267945,41.34264382
15.23711317,-8.982792063,34.28920928,-4.836070683,35.77468387
15.24712717,-2.269460515,21.70480135,-4.602555109,22.30319184
15.25714217,-0.03209799796,19.38031795,-4.809282249,19.96814839
15.26715717,-0.8857547189,18.52382482,-4.753655348,19.1445524
15.27717217,-2.810636989,17.38226238,-4.776155434,18.24429737
15.28718617,-2.868019516,14.97701841,-3.177725187,15.57673117
15.29720117,-1.962352178,11.70582636,-1.699779743,11.99026472
15.30721617,-1.236420355,9.26905303,-0.4888739332,9.363924236
15.31723017,-0.3574692731,7.469133287,0.4885897585,7.493627712
15.32724517,0.3783633846,5.220405244,0.8068175268,5.2959177
15.33726017,1.000070635,2.44823738,1.005070809,2.829165049
15.34727517,1.530971504,-0.5472122616,1.126795878,1.978126375
15.35728917,1.667263961,-3.598171275,1.299810312,4.173261613
15.36730417,1.441773399,-6.255889249,1.459094313,6.583602133
15.37731917,0.5288669148,-7.95885397,1.373612698,8.093816688
15.38733317,-0.6898998186,-8.944674064,1.506324613,9.096821957
15.39734817,-1.222438492,-10.15851276,2.132453821,10.45165522
15.40736317,-0.794123514,-11.87875776,2.53839209,12.17287774
15.41737817,0.06166502863,-13.69475209,1.997197198,13.83975556
15.42739217,0.8788952771,-14.44231627,1.315756838,14.52873608
15.43740717,1.452164193,-13.55011419,0.9316707838,13.65951631
15.44742217,1.439076955,-11.78777158,0.7383571565,11.8982214
15.45743617,1.119132225,-10.12389725,0.5353219485,10.19962362
15.46745117,0.7127048367,-9.055523239,0.3752543835,9.091274123
15.47746617,0.1853505966,-8.561555139,0.3035114229,8.568938115
15.48748117,-0.2659845775,-8.455632827,0.3411874088,8.466692575
15.49749517,-0.4392861092,-8.565741745,0.3725904651,8.585087512
15.50751017,-0.4567450181,-8.673500667,0.2484879907,8.689072224
15.51752517,-0.513663277,-8.820762209,0.2577009002,8.839462973
15.52753917,-0.6101701096,-8.952811634,0.2858516987,8.978132039
15.53755417,-0.6673263502,-8.951888359,0.2173690724,8.979358494
15.54756917,-0.6795104858,-8.901060852,0.09614342809,8.927477939
15.55758417,-0.5679994056,-8.779800124,0.1284773612,8.799091997
15.56759817,-0.5126011303,-8.523614895,0.1236007468,8.53990913
15.57761317,-0.212404494,-7.932633301,0.2432558656,7.939204001
15.58762817,0.3312155306,-7.284810339,1.077936544,7.371574634
15.59764217,0.7419876927,-6.669289734,3.147344517,7.411865406
15.60765717,1.828295403,-5.15215362,3.898095431,6.714350229
15.61767217,2.758965144,-2.760092779,3.679457513,5.363618965
15.62768717,3.539592699,0.6487228489,3.799259945,5.232966075
15.63770117,4.069250742,7.101664435,2.343386278,8.513747623
15.64771617,-0.2185765225,19.15244728,-2.632011859,19.33368819
15.65773117,-6.743494409,33.73588727,-8.993964922,35.55947429
15.66774517,-6.03031127,31.84244891,-6.044346342,32.96726148
15.67776017,-0.9859174499,19.80564676,-1.793498915,19.91111034
15.68777517,1.002173879,17.34389646,-4.609685204,17.97398939
15.69779017,0.3004398805,17.3374692,-4.607211832,17.94169734
15.70780417,-1.065964955,17.91725338,-2.648574682,18.14329622
15.71781917,-2.876276954,18.14668058,-1.266469488,18.41681107
15.72783417,-2.915604157,16.29551876,-1.699163446,16.64126906
15.73784817,-1.911405095,13.27416771,-1.078874438,13.45440329
15.74786317,-0.4163673627,11.17080613,0.6036338361,11.19484904
15.75787817,0.5975018245,9.305811551,1.586126243,9.458907628
15.76789317,0.976137397,7.037184264,1.865077021,7.345292294
15.77790717,1.227360679,4.417712928,1.888681061,4.958802063
15.78792217,1.389475902,1.553396453,1.97031287,2.868068449
15.79793717,1.373954176,-1.565244082,2.004682803,2.890759806
15.80795117,1.18887489,-4.587109104,1.739642551,5.047905471
15.81796617,0.6484635249,-7.144030436,0.7914253163,7.21692662
15.82798117,-0.2810537294,-9.280321784,0.1398080957,9.285629215
15.83799567,-0.8863861451,-11.28939702,0.3029279073,11.32819185
15.84800967,-0.7747306386,-13.35655966,0.4079064417,13.38522623
15.85802467,-0.2923929423,-14.88156846,0.2060009158,14.88586611
15.86803967,0.1038053271,-15.24598565,0.5793608379,15.25734292
15.87805367,0.4503765231,-14.11396938,1.186588336,14.17091961
15.88806867,0.6690585878,-11.8445036,1.275158451,11.93171966
15.89808367,0.6440433222,-9.841087307,0.8815262318,9.901458462
15.90809867,0.4545575747,-8.584282097,0.5056683791,8.611168458
15.91811267,0.1301905954,-8.04786321,0.2669569878,8.053342032
15.92812767,-0.1903704312,-8.100198714,0.08715625763,8.102904191
15.93814267,-0.4559527203,-8.433515149,0.04963352362,8.445977394
15.94815667,-0.5414738041,-8.789043403,0.1809572911,8.807566256
15.95817167,-0.5137732047,-9.183303612,0.4129327083,9.206928998
15.96818667,-0.3994367498,-9.53674324,0.7124247551,9.571654527
15.97820167,-0.3165287867,-9.799629378,0.9008126879,9.846034223
15.98821567,-0.2825210881,-9.839521422,0.7754249954,9.874071294
15.99823067,-0.3386388633,-9.63706275,0.5105777013,9.656518229
16.00824567,-0.4416668031,-9.174382516,0.1570141856,9.186349523
16.01825967,-0.3651603351,-8.493413442,-0.002672104463,8.501259972
16.02827467,-0.1330489885,-7.714184248,-0.03789342921,7.715424587
16.03828967,0.3690493548,-6.9287687,0.2004530776,6.94148504
16.04830467,1.336208645,-5.652684635,0.9532318068,5.886165815
16.05831867,2.980127305,-3.722953781,1.161290942,4.908170765
16.06833367,4.012782427,-1.25816995,1.567830305,4.488151768
16.07834867,4.335004647,3.037691681,1.808039771,5.593643165
16.08836267,2.701920877,10.11022412,-0.5963575244,10.48201557
16.09837767,-5.695591503,22.61761253,-4.430500789,23.74079814
16.10839267,-10.89937838,35.8167897,-8.03765748,38.29155012
16.11840767,-5.512333333,32.72265835,-6.931827378,33.89997668
16.12842167,-0.701854451,21.72631443,-4.53453328,22.2055698
16.13843667,0.1128903653,18.4104707,-4.435259253,18.93752096
16.14845167,-0.261851327,18.1726621,-4.431740398,18.70707184
16.15846567,-2.09648672,17.81535044,-3.681911005,18.31224827
16.16848067,-2.983794971,16.30033921,-3.449526283,16.92640902
16.17849567,-2.671501615,13.6661288,-2.789915918,14.20153611
16.18851067,-1.816162431,11.60078698,-0.7435658562,11.76561068
16.19852467,-0.9539206088,10.0291209,0.7696608102,10.10374229
16.20853967,-0.3423814467,8.034237444,1.358483613,8.155468968
16.21855467,0.2144000756,5.350393526,1.705757936,5.619812133
16.22856867,0.74544654,1.952063125,2.371029575,3.160383241
16.23858367,1.008042437,-1.918050456,3.130648377,3.807364754
16.24859867,1.425257938,-5.246321858,3.317716008,6.368869032
16.25861367,1.295765793,-7.718296595,2.841253302,8.32609342
16.26862767,0.6209906014,-9.264585173,2.487685035,9.61284269
16.27864267,0.4796284254,-10.48862785,2.732599171,10.84935278
16.28865767,1.172004796,-11.93620899,2.754052606,12.30575013
16.29867167,2.327956061,-13.24592683,1.658001387,13.55075369
16.30868667,3.09106068,-13.9923356,0.5967446101,14.34211337
16.31870167,3.117300938,-13.63986778,0.508597761,14.0007939
16.32871667,2.526922484,-12.14204268,0.547465446,12.4142763
16.33873067,1.701254118,-10.5337438,0.3601183907,10.67631534
16.34874567,1.154556704,-9.429990039,0.623282783,9.52082952
16.35876067,0.6740456781,-9.003515764,0.8111573303,9.065076388
16.36877467,0.1341883002,-9.125410915,0.9345791157,9.174124971
16.37878967,-0.4861038879,-9.364411177,1.253338981,9.460409731
16.38880467,-0.8236215475,-9.398132654,1.620075177,9.572245997
16.39881967,-0.9332246813,-9.333540217,2.043502468,9.600092897
16.40883367,-0.8174331468,-9.163216088,2.346916827,9.494247975
16.41884867,-0.5891308409,-8.91425334,2.376053795,9.244274952
16.42886367,-0.4091510215,-8.928370857,2.464290326,9.271242502
16.43887767,-0.1289594276,-9.0956328,2.207094844,9.360471901
16.44889267,0.1229825134,-9.158094512,1.755081832,9.325563362
16.45890767,0.2879493873,-8.867929358,1.631172169,9.021297501
16.46892267,0.3722343697,-8.343870901,1.656669391,8.514886583
16.47893667,0.5756397064,-7.649526907,1.764738801,7.871526282
16.48895167,1.675237809,-6.228762846,1.762287794,6.686521261
16.49896667,3.152683901,-3.621539088,0.7376262546,4.857885717
16.50898067,3.954885052,0.1181693047,0.529128797,3.991873876
16.51899567,3.964331228,6.063342192,0.7825704391,7.286457103
16.52901067,1.985495165,16.35632045,-0.2955102392,16.47903929
16.53902567,-4.547731908,30.69283954,-0.76198824,31.03728227
16.54903967,-9.502047617,35.71036335,-5.952714626,37.429317
16.55905467,-6.286423409,25.2988556,-9.150158086,27.6274611
16.56906967,-1.273831425,18.3633129,-5.618265585,19.24574798
16.57908367,-1.338042624,16.84727607,-4.936397209,17.60650693
16.58909867,-3.872040238,17.90577413,-5.378985826,19.09300739
16.59911367,-5.595529271,18.51173395,-4.570967281,19.87178863
16.60912767,-4.695526715,16.6742745,-2.612393281,17.51867574
16.61914267,-3.33184639,14.14074261,-1.458517778,14.60099572
16.62915767,-2.725852362,11.26355934,-0.570921113,11.6027579
16.63917267,-1.827717406,8.288200146,0.7583265674,8.521142632
16.64918667,-0.7674388683,4.698371678,1.784408834,5.084070586
16.65920167,0.1560303184,0.8004387993,2.290401149,2.431251767
16.66921667,1.03546734,-2.691144167,2.438487879,3.776330583
16.67923067,1.62257837,-5.518602133,2.145576288,6.139318177
16.68924567,1.386753731,-7.726807802,1.372856069,7.969402644
16.69926067,0.3394323304,-8.922824188,1.146844811,9.002625108
16.70927567,-0.5296516111,-9.63287322,1.916855431,9.836010982
16.71928967,-0.4165889722,-10.53702642,2.911778909,10.93987791
16.72930467,0.9052700204,-11.68799469,3.327508925,12.18610066
16.73931967,2.072580087,-13.16564105,2.490037955,13.55839155
16.74933367,2.093844363,-14.04585634,1.794121205,14.31394898
16.75934867,1.619509751,-13.0656408,1.495493231,13.25029363
16.76936367,0.6909882778,-11.59951462,0.9889665536,11.6620864
16.77937867,0.01876693557,-10.51381999,1.11443026,10.57273464
16.78939267,-0.3336184439,-9.78617435,1.409157922,9.892736514
16.79940767,-0.6518496475,-9.378785387,1.438358917,9.510804365
16.80942267,-0.9251908994,-9.163016698,1.328034968,9.304865936
16.81943667,-1.173393509,-9.006891947,1.295096287,9.174869441
16.82945167,-1.297195729,-8.737373897,1.392468799,8.942225044
16.83946712,-1.207566099,-8.495008562,1.172897739,8.660200659
16.84948213,-0.9686573464,-8.261264947,0.8524481014,8.361427112
16.85949613,-0.7750788403,-8.01335996,0.4438212097,8.062980983
16.86951113,-0.6839444295,-7.834234017,0.05820786238,7.864247629
16.87952613,-0.6124177793,-7.559338868,0.2507120888,7.58824856
16.88954013,-0.3209753019,-6.89129331,0.8554100816,6.951595143
16.89955513,0.8520445704,-5.848419009,0.7937862758,5.963227441
16.90957013,2.24102726,-4.770604087,0.5180445957,5.296153013
16.91958513,3.133925741,-3.852011186,-1.055555888,5.076778404
16.92959913,3.087659355,-3.126460016,-1.297885408,4.581800853
16.93961413,3.284232805,-1.380988961,-0.1841334256,3.567523055
16.94962913,3.495545039,2.794832257,-1.662584435,4.774317697
16.95964313,1.581453148,10.86537682,-4.097387252,11.71947054
16.96965813,-3.41995282,27.07060872,-7.011350681,28.17220212
16.97967313,-5.349056268,44.32108071,-8.336394067,45.41438169
16.98968713,0.3129640317,36.78482899,-1.469804074,36.81551187
16.99970213,2.402575596,21.09646405,-2.100108193,21.33643877
17.00971713,1.586762128,18.2873681,-3.573905915,18.70076067
17.01973213,-0.3301430051,16.89398129,-1.932303337,17.00733354
17.02974613,-2.096376208,14.39357973,-1.503317829,14.62292361
17.03976113,-2.366925707,10.69632095,-1.92239026,11.12246391
17.04977613,-1.773257024,7.394367864,-1.782471213,7.810142138
17.05979013,-1.179241017,4.436386596,-1.042878978,4.707412449
17.06980513,-0.3529835451,1.92656751,0.03654743671,1.95897817
17.07982012,0.3293632058,-0.2779707849,0.9050871487,1.002462281
17.08983513,0.7412892428,-2.404711291,1.252284143,2.810758209
17.09984913,1.122460753,-4.526020904,1.552661458,4.914828681
17.10986412,1.131073994,-6.609452253,1.380737969,6.846212442
17.11987913,0.2573066882,-8.059809657,1.277758123,8.164521067
17.12989313,-0.5657605067,-9.362749398,1.736530663,9.539219045
17.13990813,-0.5821701327,-10.68255894,2.159480821,10.91418091
17.14992313,0.08463407943,-11.51645609,2.360269675,11.75613869
17.15993813,1.07920656,-11.8432944,1.69579662,12.01266145
17.16995213,1.69566915,-11.80827893,0.9087180503,11.96396731
17.17996713,1.808171041,-11.19699931,0.7056174997,11.36398575
17.18998213,1.528734944,-10.63627472,0.7518268756,10.77184358
17.19999613,1.075563452,-10.63073858,0.6969460058,10.70771559
17.21001113,0.6026906437,-10.60059267,0.6458214605,10.63733455
17.22002613,0.3119100711,-10.29069024,0.8689289173,10.3320197
17.23004013,0.08019487331,-10.06994031,1.265641522,10.14948164
17.24005513,-0.2478427322,-10.00264704,1.599889419,10.13281896
17.25007013,-0.5786305207,-9.959831393,1.705483117,10.12135007
17.26008513,-0.7325133761,-9.843544307,1.529171,9.988508613
17.27009913,-0.5958678566,-9.50396258,1.297165031,9.610567119
17.28011413,-0.4063083977,-9.067691295,1.128713765,9.146699224
17.29012913,-0.1278539749,-8.435621901,0.9795362373,8.493265258
17.30014313,0.1518016121,-7.620942793,1.323130177,7.736438861
17.31015813,0.7178080673,-6.614235275,1.624675912,6.848571276
17.32017313,1.54296005,-5.3538083,2.177187359,5.981984105
17.33018813,2.404118091,-3.638816441,1.792351692,4.715219345
17.34020213,2.931729316,-1.339220545,0.1263957524,3.225604492
17.35021713,2.819825011,1.430916581,-0.1393531823,3.165178457
17.36023213,2.838977566,5.60257692,-1.78590806,6.52978785
17.37024613,1.758971984,13.15671001,-2.490651913,13.5054192
17.38026112,-3.451790909,26.05280728,-0.5603503704,26.28645317
17.39027613,-8.384271653,32.24335741,-4.942765996,33.68027678
17.40029013,-6.405606036,25.35291896,-7.358840182,27.1653238
17.41030512,-2.920079032,20.33398713,-3.101901126,20.77545871
17.42032013,-2.891341721,20.05924752,-2.210874192,20.38679064
17.43033513,-3.554918544,20.75826344,-3.019512688,21.27581734
17.44034913,-3.163475523,19.72723794,-3.532947339,20.28923879
17.45036413,-1.818158378,16.22140881,-2.628642694,16.53328661
17.46037913,-0.4507161733,11.94192991,-1.51713246,12.04634907
17.47039313,0.404849225,8.483274955,-1.061636846,8.559026209
17.48040813,0.7814894351,5.703033839,-0.1616626489,5.758598399
17.49042313,1.043021943,2.965742278,0.6340171746,3.207101465
17.50043813,1.11524675,0.08909051657,1.014960862,1.510582003
17.51045213,1.013347908,-2.590424123,1.018224778,2.96208589
17.52046713,0.6468838996,-5.038427029,1.034793522,5.184110661
17.53048213,-0.02587012857,-7.035043598,0.6960104513,7.069436911
17.54049613,-0.8970342171,-8.253346648,0.3275446852,8.308410606
17.55051113,-1.740844154,-9.506211419,0.6044898319,9.683181392
17.56052613,-1.564345072,-11.07771378,0.9296616805,11.22618318
17.57054013,-0.612706047,-12.77160186,1.214518147,12.843842
17.58055513,0.207998617,-13.82540695,1.551717718,13.91376903
17.59057013,0.676569044,-13.33838066,1.72889303,13.46696757
17.60058513,0.7884318343,-11.70442537,1.49654456,11.82602399
17.61059913,0.6297652987,-10.37867213,0.8057814002,10.42893682
17.62061413,0.4993639112,-9.610970135,0.2205593133,9.626461326
17.63062913,0.2871427274,-9.382828737,-0.09266203243,9.38767875
17.64064313,-0.07938033789,-9.43115539,0.03876115602,9.431569098
17.65065812,-0.4022021905,-9.496709694,0.1921757956,9.507165358
17.66067313,-0.6789041296,-9.465646361,0.1621620377,9.491347026
17.67068713,-0.8637144434,-9.40602815,0.08148215611,9.445951913
17.68070212,-0.925538224,-9.22663148,0.1308548391,9.273859632
17.69071713,-0.9696455258,-8.946206034,0.3658754861,9.006035739
17.70073213,-0.9092490506,-8.716274804,0.4548069584,8.77536493
17.71074613,-0.7790844753,-8.616775659,0.3444092246,8.658776651
17.72076113,-0.4836006948,-8.487630545,0.1796639601,8.503294717
17.73077613,-0.1697572419,-8.196018791,0.3597347403,8.205665764
17.74079013,0.3997320342,-7.536790835,0.3935855142,7.55763927
17.75080513,1.196793482,-6.641812499,0.5673564311,6.772583054
17.76082013,2.159213018,-5.452809262,1.471518477,6.046544165
17.77083513,3.395998239,-3.434345741,1.636366689,5.099532396
17.78084913,4.116133425,-0.3069770676,2.170658358,4.663533746
17.79086413,4.196951301,4.935176895,1.170881546,6.583413613
17.80087913,2.309984643,14.62014647,-2.561927133,15.02159054
17.81089313,-5.212892157,29.67099182,-3.110012383,30.28554403
17.82090813,-10.96066538,36.62113502,-6.861529813,38.83715112
17.83092313,-5.75243521,28.0572141,-7.527901897,29.61362998
17.84093742,-0.6682288679,20.15087339,-3.238517811,20.4203875
17.85095242,-1.084740365,18.51135388,-2.82741762,18.75742985
17.86096742,-2.850727546,18.70346766,-3.1869442,19.18600957
17.87098242,-3.580182316,18.9329124,-3.299415393,19.54888793
17.88099642,-2.655660923,17.34696157,-2.456685437,17.72018381
17.89101142,-1.575985417,14.89072403,-1.298128653,15.03005423
17.90102642,-0.4299802655,12.45007634,-0.2767335141,12.46057243
17.91104042,0.720482803,9.682602035,0.5906050336,9.72731679
17.92105542,1.583404072,6.368194381,1.189757527,6.66907723
17.93107042,1.661369676,2.428704171,1.886288381,3.495259219
17.94108442,1.264462724,-1.615251224,2.44145461,3.188824722
17.95109942,0.7032455036,-5.073809701,2.180644233,5.567163406
17.96111442,0.08691918958,-7.450287126,1.673539778,7.636430357
17.97112942,-0.2985310569,-8.859152688,1.383871053,8.971555396
17.98114342,-0.4249791054,-10.18623324,1.670964664,10.33112181
17.99115842,0.02630662322,-11.96015685,1.883360095,12.1075633
18.00117342,0.863137908,-13.77615819,0.9628083766,13.83670992
18.01118742,1.399928385,-14.83532283,0.07997470737,14.90144285
18.02120242,1.648214318,-14.75654564,-0.07022856832,14.84847405
18.03121742,1.729050612,-13.33970447,0.1371031737,13.45199349
18.04123142,1.51551936,-11.19095797,0.2895687371,11.29682209
18.05124642,1.106522705,-9.510006847,0.08342924237,9.57452783
18.06126142,0.6545212403,-8.745201564,-0.1826950836,8.771563484
18.07127642,0.1916831494,-8.616613106,-0.1016462427,8.61934428
18.08129042,-0.04633066904,-8.563216333,0.09806248426,8.563903126
18.09130542,-0.1303987928,-8.573364176,0.6312735879,8.597562647
18.10132042,-0.1779576695,-8.787640071,1.237151549,8.876081957
18.11133442,-0.07941772353,-8.996226625,1.623760092,9.141936201
18.12134942,0.07119226255,-9.028984482,1.795848327,9.20612298
18.13136442,-0.007675639987,-8.781458395,1.972542998,9.000277569
18.14137842,-0.1766610129,-8.269296682,2.135939931,8.54252399
18.15139342,-0.2611050395,-7.80579433,2.005124853,8.063443844
18.16140842,-0.1773232466,-7.673732625,1.369434278,7.796984429
18.17142342,0.1441122677,-7.976606117,0.4940429815,7.993190349
18.18143742,0.5805647796,-8.306955675,0.04641052008,8.327347836
18.19145242,1.112416698,-8.204075085,0.2203440992,8.282081286
18.20146742,1.828188399,-7.733108761,0.538058482,7.964468022
18.21148142,2.806898571,-6.544666858,0.8149708843,7.167671966
18.22149642,4.160259731,-4.003432437,-0.9430798709,5.850182214
18.23151142,4.468130253,-0.7243156528,-1.321131599,4.715316513
18.24152542,3.740370297,3.573700678,-0.5478115281,5.202096113
18.25154042,1.676615413,11.66760662,0.08211248595,11.78774049
18.26155542,-5.638936661,29.46197258,-3.620486004,30.21445604
18.27157042,-12.3095198,40.89110869,-8.493870109,43.54024434
18.28158442,-7.015219198,31.19800155,-6.972658485,32.72837557
18.29159942,-3.928447451,20.5397717,-2.854809487,21.10603843
18.30161442,-2.081554101,19.42083916,-1.408808259,19.58281394
18.31162842,-3.095061053,20.04674851,-3.646066403,20.60935052
18.32164342,-3.257964481,19.38759189,-4.147722423,20.09220379
18.33165842,-1.535007252,16.59352562,-2.502023578,16.85115609
18.34167242,-0.795462234,13.96923325,-1.073873899,14.03301261
18.35168742,-0.54060827,11.19825062,-0.0829250662,11.21159894
18.36170242,-0.06602178901,8.102818851,0.7578728235,8.138452152
18.37171742,0.368754582,4.554364697,1.558670057,4.827801785
18.38173142,0.4703666186,0.6432112634,2.273330787,2.408941335
18.39174642,0.9335435738,-3.111110491,2.785184351,4.278757291
18.40176142,1.542569456,-6.425907569,2.671204576,7.127912913
18.41177542,1.545868748,-8.728783168,1.862658613,9.058193136
18.42179042,0.8281980901,-10.12989649,1.502254951,10.27411723
18.43180542,0.3306551481,-11.37102999,1.615771626,11.49001192
18.44182042,0.823459872,-12.4735646,1.714849187,12.61778934
18.45183442,1.730103696,-13.35962711,1.137975901,13.5191673
18.46184942,1.890938379,-13.65101608,0.519180125,13.79113614
18.47186442,1.389925261,-12.76953897,0.63387326,12.86059147
18.48187842,0.9295520452,-11.18355657,0.7729095963,11.24870631
18.49189342,0.6934484938,-10.12278978,0.6646413088,10.16825904
18.50190842,0.603856615,-9.676387614,0.6920822918,9.719881582
18.51192242,0.4431646039,-9.538895016,0.7293817536,9.576999046
18.52193742,0.2980887151,-9.700121462,0.8659188437,9.74325555
18.53195242,0.2414976809,-9.958278372,1.055555888,10.01697696
18.54196642,0.3412321034,-10.00549698,1.128594482,10.07472752
18.55198142,0.3113803133,-9.844975705,1.281623132,9.932928178
18.56199642,-0.002418444939,-9.535109528,1.585411713,9.666015201
18.57201142,-0.4425041243,-9.17648342,1.503631386,9.309380495
18.58202542,-0.6902775487,-8.793481439,1.056437502,8.88357243
18.59204042,-0.9404524246,-8.641796479,0.6001711515,8.713512642
18.60205542,-1.048354238,-8.671671658,0.01672318295,8.734827738
18.61206942,-0.7535648143,-8.445286179,0.1675509413,8.480494791
18.62208442,0.2292447309,-7.75951888,0.8369458171,7.807891181
18.63209942,1.196673029,-6.92247768,1.216323767,7.12966809
18.64211342,2.246470433,-5.561042978,1.068800855,6.092139499
18.65212842,3.476460897,-3.664678676,1.464836279,5.259410184
18.66214342,4.504642898,-0.8848006725,2.28598767,5.128393462
18.67215842,4.532395538,4.035431909,1.129169848,6.17270966
18.68217242,1.300945256,11.52574849,-2.17339237,11.80080384
18.69218742,-5.118964823,24.84083385,-2.690010391,25.50503838
18.70220242,-7.987598298,35.7169099,-5.334397298,36.98587803
18.71221642,-6.34895938,29.73220282,-6.282747849,31.04490441
18.72223142,-2.934586851,21.87849874,-4.331245472,22.49533717
18.73224642,-1.033308256,20.47773508,-5.598173382,21.25429145
18.74226042,-1.815076895,19.41752496,-7.163987567,20.77636872
18.75227542,-3.100836056,18.27742783,-5.814567139,19.42906954
18.76229042,-3.124218194,16.06583545,-4.079714627,16.86759851
18.77230542,-2.039813167,13.88940589,-2.070327154,14.19023215
18.78231942,-1.311198349,12.44638792,-0.6778594514,12.53360709
18.79233442,-0.6220273858,10.77401992,-0.0592089057,10.79212347
18.80234942,-0.02192318492,8.223401302,0.6687437884,8.250577426
18.81236342,0.6088158944,4.888006822,1.539355534,5.160705663
18.82237842,1.395478361,1.496246352,2.528091635,3.252285399
18.83239342,1.966480166,-1.765180265,3.315491728,4.239739498
18.84240763,2.293658048,-4.84231317,3.201640592,6.241743872
18.85242263,1.742131418,-6.921243918,2.540417565,7.575774591
18.86243763,0.3352636311,-8.01546145,2.476656017,8.396061516
18.87245263,-0.5619980427,-9.113659766,2.554522219,9.481572649
18.88246663,-0.4462655651,-10.64955024,3.042383487,11.08459158
18.89248163,0.6890920258,-12.87654652,1.912783284,13.03606682
18.90249662,1.681330316,-14.56472422,0.02759304721,14.66147416
18.91251062,1.857565103,-14.74583237,-0.03553360261,14.86241511
18.92252563,1.268501103,-13.14807017,0.5421035492,13.22023904
18.93254062,0.6341249827,-10.9285057,-0.1001159899,10.94734554
18.94255462,0.1464627753,-9.521808282,-0.2237578133,9.525563073
18.95256963,-0.241602273,-9.005517851,0.406912415,9.017943288
18.96258463,-0.4215926539,-8.984688315,0.7283117862,9.024012552
18.97259863,-0.4234047426,-8.983683178,0.8444818548,9.033215631
18.98261363,-0.45293468,-8.947354428,1.02790192,9.017587451
18.99262863,-0.5777028599,-8.975518126,1.059541131,9.056284759
19.00264363,-0.6836669791,-8.94365431,1.173428593,9.046175303
19.01265763,-0.8894179264,-9.046979873,1.541626593,9.220386197
19.02267263,-0.8665617451,-9.128195944,2.160270195,9.42027907
19.03268763,-0.6513201821,-9.011561533,2.392233918,9.346402643
19.04270163,-0.6362826052,-8.904652796,2.119008733,9.175396176
19.05271663,-0.4678825021,-8.66472692,1.513440675,8.808343165
19.06273163,-0.1958311459,-8.366005536,1.059529583,8.435105299
19.07274563,0.2134704414,-8.108211738,-0.04209052406,8.111130552
19.08276063,0.4322940087,-7.683391641,-0.3465293884,7.703341342
19.09277563,1.419772373,-6.43859018,1.08907666,6.682610647
19.10279063,2.466812814,-4.205860119,1.927394307,5.24302142
19.11280463,3.002066351,-0.4504022509,4.059022501,5.068621925
19.12281963,3.696377016,5.166949414,5.383730257,8.32737178
19.13283463,2.697536343,12.39059144,1.499062371,12.76912866
19.14284863,-2.040956883,22.17670908,-2.598728338,22.42153696
19.15286363,-5.995910931,26.80675195,-6.063646832,28.13042322
19.16287863,-4.804678444,20.82614493,-9.835636532,23.52770694
19.17289263,-0.2403088323,16.82465319,-8.763786939,18.97183873
19.18290762,0.6236745465,16.68512108,-6.196439438,17.80949458
19.19292263,-0.9703846139,18.30250069,-6.84385368,19.56429173
19.20293663,-2.435577866,20.40258667,-5.788216077,21.34715502
19.21295162,-2.415202073,19.21841206,-3.298568716,19.64843807
19.22296663,-2.164313545,15.24330529,-1.785268375,15.49934813
19.23298163,-1.462232222,13.09061543,-1.637280024,13.27339524
19.24299563,-0.7647526574,11.99966298,-0.7218750981,12.04565739
19.25301063,-0.02594676364,10.3399121,0.8897122606,10.37815222
19.26302563,0.8184002763,7.733439129,1.710348001,7.962483913
19.27303963,1.435589091,4.552979491,2.07737071,5.206342993
19.28305463,1.780915123,1.20581632,2.524430108,3.316383428
19.29306963,1.918462977,-2.193642594,2.750436687,4.00717731
19.30308363,1.818454539,-5.566130641,2.848000989,6.511504961
19.31309863,1.474373088,-7.973041654,2.848146,8.593899281
19.32311363,0.6476197717,-9.215263324,2.91858156,9.688065226
19.33312763,0.04604035478,-10.07775804,3.242009768,10.58649867
19.34314263,0.03728595832,-11.16535652,3.001545364,11.56182732
19.35315763,0.5236652318,-12.67632265,1.86348424,12.82325835
19.36317263,1.036848745,-13.86925171,0.7002708057,13.92557279
19.37318663,1.129054365,-14.02919645,0.2905902457,14.07755517
19.38320163,0.8802749276,-12.83877351,0.4634573293,12.87725832
19.39321663,0.4402915379,-11.27066137,0.3588260829,11.28496435
19.40323063,0.08411804438,-10.1208871,0.3247672212,10.12644584
19.41324563,-0.2770425394,-9.477427915,0.6016328824,9.500544962
19.42326063,-0.6093202168,-9.225701188,0.8148269697,9.281636522
