Time (s),Linear Acceleration x (m/s^2),Linear Acceleration y (m/s^2),Linear Acceleration z (m/s^2),Absolute acceleration (m/s^2)
0.003425958334,0.1288603538,0.1550377536,-1.095930766,1.114318599
0.01336195832,0.03049849212,-0.04612663776,-1.146079996,1.147413256
0.0232969583,-0.2027788076,-0.214555977,-0.8994613963,0.9466701197
0.03323295835,-0.4989496359,-0.2707933277,-0.4873022747,0.7481599244
0.04316795833,-0.6362048373,-0.2570687431,-0.02276671886,0.6865560845
0.05310395831,-0.7223815401,-0.19576478,0.3114922875,0.8106703299
0.06303895835,-0.8218330304,-0.1646938455,0.4993773597,0.9756594386
0.07297495834,-0.7855743,-0.09473074079,0.5861488706,0.9847189409
0.08290995832,-0.6450841266,-0.03648370206,0.555013032,0.8517652591
0.09284595831,-0.3830354561,-0.06153346628,0.520685783,0.6493198078
0.1027809583,-0.239252277,-0.08854672551,0.7228596961,0.7665561395
0.1127169583,-0.2609264436,-0.03154806733,0.880719316,0.9190997787
0.1226529583,-0.4336108017,-0.08257613361,0.886733762,0.9905220391
0.1325879583,-0.4342032708,-0.2029276192,0.8477907211,0.9738897298
0.1425239583,-0.3574240668,-0.2748474947,0.8428603488,0.9558800534
0.1524589583,-0.2972138254,-0.3264050263,0.9395031291,1.038047412
0.1623949583,-0.07133953929,-0.5004567558,1.037503048,1.154105225
0.1723299584,-0.09228411958,-0.8069891426,0.9742034304,1.268392746
0.1822659583,-0.2812228601,-0.9128170216,0.8008054197,1.246439141
0.1922009583,-0.4290088968,-0.7497843701,0.5970790708,1.050108876
0.2021369583,-0.3574264057,-0.4600255984,0.3817430753,0.6964947682
0.2120719583,-0.2075504279,-0.1197351891,0.01278844535,0.2399525786
0.2220079583,0.05699237242,0.03741721004,-0.2217270023,0.2319720708
0.2319429583,0.3122224586,0.05247408271,-0.2476833773,0.4019744375
0.2418789583,0.4031143561,0.07812932611,-0.2784315455,0.4961144034
0.2518139583,0.2551030554,0.2112224793,-0.2140151095,0.3943285074
0.2617499583,-0.0538965641,0.3342224613,-0.01831523359,0.3390353094
0.2716849583,-0.3582447235,0.2747723579,0.1434643596,0.4737310979
0.2816209584,-0.6445218437,-0.04254814178,0.4532463366,0.789082374
0.2915559583,-1.021039043,-0.6476528084,0.8442490625,1.474697043
0.3014919583,-1.071022504,-1.177684196,1.267790959,2.035024124
0.3114269583,-0.4325221598,-0.6806574172,1.670277616,1.854776874
0.321363375,-6.808351725e-05,-0.7410281646,2.009145398,2.141445301
0.331299375,0.5022021496,-1.696706446,2.069751788,2.723029972
0.341234375,1.329510659,-2.534556316,2.081038669,3.538685667
0.351170375,1.385482838,-3.11741145,1.720032744,3.820514296
0.361105375,1.561502448,-3.813907805,1.961908082,4.564347266
0.371041375,3.130646915,-4.045359896,3.048966283,5.955004802
0.380976375,3.84770325,-1.866398492,3.176323317,5.327034207
0.390912375,2.44272404,-2.706756817,2.257673113,4.288417084
0.400847375,1.95774311,-3.444016451,1.810765159,4.35578671
0.410783375,1.142388502,-3.140126714,2.286168349,4.0487051
0.420718375,-0.1740987995,-3.103874561,3.179797148,4.446960489
0.430654375,-0.8110529575,-3.165897147,2.931337845,4.390154121
0.440589375,-0.1083379425,-3.223713246,2.178539528,3.892312767
0.450525375,1.369803822,-3.5651386,1.124344726,3.981297126
0.460460375,2.933925531,-4.819773908,0.6205497944,5.676550149
0.470396375,3.613231656,-5.960673271,0.5668343478,6.993308946
0.480331375,3.990113356,-6.852833834,0.614016408,7.953574813
0.490267375,3.685668426,-7.894053957,1.327839817,8.812683938
0.500202375,3.515446915,-9.519800348,1.58460889,10.27112219
0.510138375,3.932524422,-10.91165051,1.128610708,11.65343844
0.520073375,-5.401920944,-8.967234961,-2.687337044,10.80804483
0.530009375,-11.20308627,-5.136533368,-2.516165653,12.57872038
0.539945375,-15.48115131,-1.879807327,-0.01541099466,15.59486964
0.549880375,-22.11697158,-0.3251671708,-1.271362438,22.15586893
0.559816375,-17.96138582,-0.9405679071,-0.7851661643,18.00312569
0.569751375,-12.068818,-4.663194244,-0.4193330705,12.94517627
0.579687375,-8.460090744,-7.392893196,0.6266694903,11.25258725
0.589622375,2.568033088,-5.496463405,-1.730041715,6.30864076
0.599558375,19.84579608,2.580322473,-0.9113400149,20.03357748
0.609493375,19.44855964,6.854093909,1.656668807,20.68742678
0.619429375,14.07937374,4.500725264,-0.628273674,14.79459431
0.629364375,8.98651557,0.2821918899,3.859302079,9.784237675
0.639300375,-1.929881712,-1.262496305,2.415214645,3.339401462
0.649235375,0.2158669227,-0.9917953634,3.043755244,3.20853589
0.659171375,0.4299323183,-0.02898406327,1.62967075,1.685677498
0.669106375,2.681242492,1.506695327,-0.6988849425,3.153986726
0.679042375,3.608919627,2.991760048,1.319235055,4.869836772
0.688977375,3.696527874,3.241637301,5.133432004,7.1080697
0.698913375,2.575548806,2.946794375,6.103665175,7.250639787
0.708848375,0.908233974,3.353666444,5.624123325,6.610804093
0.718784375,-0.4446292949,3.859094503,5.243287153,6.525516513
0.728719375,0.1448747081,3.873741778,3.760318658,5.40063519
0.738655375,2.164613507,4.566573683,1.803798201,5.365895525
0.748591375,2.730616381,5.418842202,2.305374699,6.491137738
0.758526375,0.3000978184,4.810842286,3.063096664,5.711114022
0.768462375,-2.890579244,2.959658834,2.072459049,4.627106579
0.778397375,-2.306945845,1.559141343,0.5598826297,2.840138979
0.788333375,-0.9173339957,0.8994228047,-1.05112823,1.659919756
0.798268375,-0.8418388402,0.5004263502,-1.761783618,2.015688637
0.808204375,0.3077986014,0.9457409388,-2.27376699,2.481769978
0.818139375,1.369141333,1.355340734,-4.453611324,4.852437565
0.828075375,1.26109999,1.824008517,-6.007826972,6.404011648
0.838010375,2.313585359,2.551588086,-5.886942805,6.820511312
0.847946375,4.436683635,2.994778381,-6.616170119,8.510379913
0.857881375,2.298177946,2.928289107,-5.113675432,6.325043509
0.867817375,-0.1212045944,1.992152805,-4.163968327,4.617574643
0.877752375,-1.377249666,1.277769817,-4.444255779,4.825030754
0.887688375,-2.237130675,1.099285898,-5.357054089,5.908571034
0.897623375,-2.429789414,0.6778805745,-5.241642916,5.817062758
0.907559375,-2.355339741,0.1629852891,-4.50095506,5.082596379
0.917494375,-2.770403759,-0.8300672257,-3.573218867,4.596960046
0.927430375,-3.754128211,-2.472248386,-3.138923357,5.482547815
0.937366375,-3.971535875,-3.556372454,-4.652142129,7.075542992
0.947301375,-3.018307577,-3.11053337,-5.565727183,7.054283631
0.957237375,-2.939263746,-1.10226447,-6.686312149,7.386543744
0.967172375,-3.482504579,1.014864968,-5.886452808,6.914341307
0.977108375,-3.375764242,0.1060146976,-4.079178438,5.295915413
0.987043375,-3.697643523,-2.025550931,-3.377566354,5.402164258
0.996979375,-4.075767172,-2.414574375,-3.025935562,5.621239496
1.006914375,-5.062631578,-1.635817051,-1.906405726,5.651594352
1.016850375,-5.596302858,-0.3663958883,0.1266316876,5.609713648
1.026785375,-5.145374942,1.344441524,1.605893048,5.555294663
1.036721375,-4.926318948,3.155510738,1.99941914,6.18251917
1.046656375,-5.266631577,4.730455935,1.808788215,7.306595399
1.056592375,-5.000483277,5.311735244,1.044296343,7.369526387
1.066527375,-3.689234642,4.463035866,-0.1969902103,5.793785164
1.076463375,-3.473810354,3.66586683,-1.562033376,5.286386881
1.086398375,-1.392746542,4.226913604,-0.2211230214,4.455944
1.096334375,0.5947068554,5.516635714,0.9897412366,5.63618076
1.106269375,0.8494618553,5.516003045,1.803039232,5.865051195
1.116205375,1.771225702,4.071641961,3.288408594,5.525318075
1.126140375,0.8972897404,2.918584483,3.85718948,4.91946897
1.136076375,0.1531204516,2.584572814,2.453734932,3.567110542
1.146012375,0.1537735856,1.108508711,2.828143845,3.041518615
1.155947375,0.0532628721,-0.1068707299,2.394364497,2.397340116
1.165883375,0.8479714,-0.8445572108,2.937898129,3.172314265
1.175818375,0.8384357607,-1.292770849,3.358845908,3.695412944
1.185754375,0.7959779584,-0.9975835222,1.227525862,1.770755075
1.195689375,0.180451507,-1.255802413,0.6445303953,1.423032634
1.205625375,0.5584810156,-2.352401515,1.869969971,3.056547338
1.215560375,0.545260461,-3.010070604,1.991723034,3.650314323
1.225496375,0.3642698407,-3.523090103,1.518210248,3.853546256
1.235431375,0.6707615894,-4.297180763,1.151043112,4.498953642
1.245367375,1.389706575,-5.65928848,0.6312151158,5.861506887
1.255302375,1.346459398,-7.05542173,2.127240443,7.491133466
1.265238375,0.1007978117,-7.533280751,3.221422307,8.193780614
1.275173375,-1.969785743,-7.471620108,2.972168368,8.278825262
1.285109375,-2.021150317,-7.114102632,3.314054482,8.104224946
1.295044375,-2.145805645,-6.426475918,3.2467159,7.513004641
1.304980375,-1.899432921,-4.885771431,2.563302982,5.835163244
1.314916375,-1.52310466,-3.370816913,1.875473371,4.147246656
1.3248515,-1.054786833,-2.637615246,0.7676388431,2.942593897
1.3347875,-0.4024337402,-1.685539434,0.5156691644,1.808012938
1.3447225,0.03569491267,-0.7073172122,0.6480053955,0.9599389346
1.3546585,0.5291364715,0.01245223045,0.8660615158,1.014989169
1.3645935,0.9700308573,0.2420185947,0.806151529,1.284294807
1.3745295,0.9827772027,-0.0732053858,1.20949685,1.560157905
1.3844645,-0.1698411494,-0.9457000083,1.091964599,1.454503767
1.3944005,-2.680932004,-0.5285304075,-0.08982492685,2.734009752
1.4043355,-3.909030894,-0.2471530348,-0.7542984205,3.988805994
1.4142715,-4.731228937,-0.766843037,-0.666919384,4.839148372
1.4242065,-4.230970986,-0.8188879341,-0.7233385831,4.369772493
1.4341425,-3.347923894,-0.5709975654,-0.2860311717,3.40829084
1.4440775,-2.34991411,-0.9248733956,-0.7511707449,2.634719076
1.4540135,-0.9950499237,-1.473011856,0.3736277246,1.816448721
1.4639485,-0.3786534065,-2.009319645,1.544352565,2.562375594
1.4738845,-0.329497034,-1.885787274,1.867938064,2.674687748
1.4838195,-1.19602048,-1.457406222,1.242217577,2.257787056
1.4937555,-1.449048212,-1.124370453,0.8701396564,2.030047452
1.5036915,-0.3959231579,-1.564706138,0.5535541517,1.706306726
1.5136265,0.5404552191,-2.119483527,0.7548609227,2.313896557
1.5235625,0.5063940185,-1.464456795,1.221691511,1.973220402
1.5334975,0.5151829684,-0.9192156297,1.870545922,2.146931045
1.5434335,0.3629325825,-0.3224716043,1.512729068,1.58872818
1.5533685,-0.2771393108,-0.01201018095,0.2476611578,0.3718689166
1.5633045,-0.2019868022,0.1466826671,-0.5529448718,0.606681551
1.5732395,0.0896173507,0.4955181974,-0.7013273245,0.8633826322
1.5831755,0.3605130047,0.737360791,-0.664061265,1.055768879
1.5931105,1.100124389,0.506193459,-0.09540550947,1.214745941
1.6030465,1.121679565,0.9670546246,0.7546521771,1.662185189
1.6129815,1.573781601,1.194494357,0.7553675839,2.115227052
1.6229175,1.773855194,1.208161638,0.165504562,2.152581835
1.6328525,1.306472629,1.741827071,-0.2736567092,2.194474942
1.6427885,0.4427920997,2.190340086,-0.5959923658,2.312760566
1.6527235,-0.6536812878,2.44197969,-0.7874112028,2.64775007
1.6626595,-1.480629609,2.559581814,-2.003045583,3.571542343
1.6725955,-1.614656562,2.888993479,-2.35257547,4.060543126
1.6825305,-1.521910366,3.20367133,-1.824721585,3.98865015
1.6924665,-1.614637851,3.627433666,-1.643364637,4.297205804
1.7024015,-2.007017012,2.956425909,-2.126404876,4.158144915
1.7123375,-1.935473405,0.9916790038,-3.608218546,4.212923643
1.7222725,-1.876664448,-0.00771423161,-4.481225969,4.858324315
1.7322085,-1.993520468,0.3783797568,-3.890112813,4.387513281
1.7421435,-1.185725287,0.3907524651,-2.660046335,2.938448306
1.7520795,0.05887035191,0.1687822187,-1.29150785,1.303819651
1.7620145,2.120149525,0.9137204164,-1.193255332,2.59880305
1.7719505,2.720626413,2.343454106,-1.072340759,3.747465801
1.7818855,3.154865205,2.423413026,-0.2648969954,3.987013365
1.7918215,3.946264209,1.272686248,-0.1687295938,4.149843511
1.8017565,4.242196763,0.3136481559,-0.3525537747,4.268360658
1.8116925,4.045028944,-0.08045300961,-0.4703400868,4.073076435
1.8216275,4.434087763,-0.3415235871,-0.407160337,4.465820439
1.8315635,4.367426873,-1.368801025,-0.0795010829,4.577592616
1.8414985,3.560566077,-2.840903054,0.3821634901,4.57104035
1.8514345,2.132299747,-3.814017733,0.7307902747,4.430292078
1.8613705,0.4750047031,-4.955951468,1.204773469,5.122359176
1.8713055,-1.553209635,-5.440503212,0.6283163586,5.692654637
1.8812415,-3.31582268,-4.726428958,0.09746080577,5.774366575
1.8911765,-5.51254968,-3.148889351,1.325055665,6.485328105
1.9011125,-7.401823649,0.4790267104,3.128267391,8.050001043
1.9110475,-7.678298716,2.557025412,3.41178923,8.782650846
1.9209835,-6.370991689,2.255530109,3.393933003,7.562786021
1.9309185,-5.084567993,1.827896916,4.754286847,7.197032877
1.9408545,-6.46247781,1.978684913,5.107383828,8.471374327
1.9507895,-5.628791742,1.467176335,5.330938085,7.890171338
1.9607255,-3.558535924,1.532065811,5.904028369,7.061724616
1.9706605,-1.402218447,1.120117189,5.45243504,5.740202693
1.9805965,0.8397434905,-0.6649734306,3.195570597,3.370316044
1.9905315,1.155094063,0.08896772504,0.453648625,1.244168247
2.0004675,1.337902875,0.5321913493,0.1984805194,1.453480737
2.0104025,2.002149789,-0.5877311271,-1.138123105,2.376837365
2.0203385,2.460489635,-0.03617379963,-7.007972159,7.427448524
2.0302735,2.350755232,1.771137409,-8.02890069,8.551387266
2.0402095,0.4346299714,2.438395346,-4.536693242,5.168777481
2.0501455,0.4986946973,3.009052019,-2.1004447,3.70337122
2.0600805,0.09994294882,2.918744697,-1.565580589,3.313623663
2.0700165,0.2412382838,2.078985711,-1.924779139,2.843440211
2.0799515,0.3196614325,0.5466094136,-1.762871785,1.873147675
2.0898875,0.2527198765,-0.4674860609,-1.357498064,1.457810532
2.0998225,0.1256405845,-0.6734308434,-0.7060714629,0.9837843097
2.1097585,-0.4102643314,-0.724558897,0.3095746931,0.8883349073
2.1196935,-0.6653476524,-0.5951828188,0.7612057364,1.173185518
2.1296295,-0.5057502401,-0.3655825406,0.6821598592,0.9245409525
2.1395645,-0.2766300184,-0.05570700824,0.5738790733,0.6395034234
2.1495005,0.3156847411,-0.1665082365,0.90198944,0.9700344316
2.1594355,1.304963755,-0.2434885848,1.85790161,2.283421881
2.1693715,1.769059308,-0.4580697048,2.788821319,3.334205009
2.1793065,1.400937029,-0.5646387184,2.887560619,3.258749418
2.1892425,0.7624944627,-0.3454458994,1.965237486,2.136092005
2.1991775,0.2716326955,0.1684559441,0.7814736477,0.8443120207
2.2091135,0.9864472076,0.8843024898,-0.2274312535,1.344170362
2.2190485,1.301084128,1.172836854,-1.094944633,2.065737143
2.2289845,0.6787035701,0.7464543808,-3.30721704,3.457675119
2.2389205,1.359257199,0.6327125877,-4.172321659,4.433528322
2.2488555,4.045152028,0.7459982979,-2.926856539,5.048391585
2.2587915,4.491013623,0.07991097271,-2.656558763,5.2185145
2.2687265,2.726860422,-0.6775326651,-3.95713506,4.853219154
2.2786625,1.969819072,-0.5253781736,-3.877798576,4.381042251
2.2885975,0.3403132135,0.04716422617,-3.954739748,3.969635251
2.2985335,-1.824035707,0.8680542469,-4.51596954,4.947181553
2.3084685,-2.690104532,1.003039559,-3.270759358,4.352081976
2.318404583,-2.46661167,0.04474932611,-1.505718842,2.890218826
2.328339583,-1.351451166,-0.7850910276,1.476307347,2.149946873
2.338275583,-0.4470208061,-1.392395709,2.72905225,3.096178224
2.348210583,-0.3026062739,-1.473640432,1.037990633,1.827733907
2.358146583,-0.1032156354,-0.9238249898,-1.612565013,1.861309217
2.368081583,0.4611377388,-0.1629695016,-1.921625444,1.982889664
2.378017583,1.01391538,-0.2254926091,-0.2234647948,1.062453683
2.387952583,2.450586206,-0.8229020476,1.905518703,3.21147039
2.397888583,3.092511667,-2.102938246,3.096003039,4.855019309
2.407823583,2.999478958,-2.512951439,1.800573462,4.307419615
2.417759583,3.182351212,-2.30934145,0.3751438346,3.949829118
2.427695583,2.643525612,-1.330551463,-0.7358182955,3.049593976
2.437630583,1.712586899,-0.4645256156,-1.212711357,2.149280524
2.447566583,-0.3112256545,-0.4403924024,-0.4292895631,0.6892723737
2.457501583,-1.878250213,-0.7305435222,-0.2570723976,2.031650541
2.467437583,-1.469552059,-0.5911406386,-1.357875356,2.08634992
2.477372583,-0.7502521473,0.1568556529,-1.654159766,1.823109024
2.487308583,-0.060621593,0.2349224138,-1.129853534,1.155609158
2.497243583,1.202012706,-0.01664117575,-0.5584418392,1.325506983
2.507179583,1.657031919,0.05564736664,0.4194359815,1.71019822
2.517114583,1.123327895,0.8566504222,1.208809948,1.859284001
2.527050583,1.527874526,0.4853533977,1.143338821,1.969058696
2.536985583,2.19296841,-0.7841741842,1.641616319,2.849376026
2.546921583,-0.04848978996,-0.2792331988,1.869577038,1.890936472
2.556856583,1.042062122,0.1689699143,1.139285239,1.553195143
2.566792583,0.09768767774,0.02578563631,1.812188371,1.81500261
2.576727583,-0.08997695446,-0.5151274198,1.548019061,1.633956892
2.586663583,-0.5751245302,-0.8812765557,-0.0005183556676,1.052338758
2.596599583,-1.23081843,-0.3202280277,-0.7053920165,1.454316985
2.606534583,-0.7469630885,-0.3050129879,-0.8283995998,1.15638777
2.616470583,-0.2973589826,-0.5334292048,-1.02044789,1.1892363
2.626405583,0.03501663566,-0.1238083595,-0.732291255,0.7435086797
2.636341583,-0.162338587,0.8135465026,0.01173565418,0.8296682797
2.646276583,-0.178097418,0.7633475715,0.785027293,1.109362905
2.656212583,-0.5485150212,0.571128543,1.396165263,1.605096253
2.666147583,-1.395667226,0.5903214437,1.633719508,2.228319063
2.676083583,-1.537489103,0.8120040071,1.358218149,2.206349879
2.686018583,-0.949783119,1.166577995,0.3255117179,1.539139393
2.695954583,-0.4804329658,1.260336928,-0.6101008201,1.480367528
2.705889583,0.2734315914,1.208746945,-0.6819572532,1.414531621
2.715825583,1.114504446,0.9026837969,-0.4298241448,1.497233113
2.725760583,1.846197531,0.9747437131,0.03397173822,2.087995381
2.735696583,1.421911869,1.024718696,0.5765062273,1.84505859
2.745631583,1.332165295,1.181679599,0.2817830964,1.80289566
2.755567583,1.010476048,0.7981297338,-0.007832930088,1.287685626
2.765503583,0.8114146078,0.4189442307,0.3830008113,0.9902512588
2.775438583,0.4118650067,0.3894918054,0.4371418621,0.7158419224
2.785374583,-0.2870310456,0.1208134156,0.6392164457,0.7110417477
2.795309583,-0.6664837664,0.1414429772,0.2939418697,0.7420300193
2.805245583,-0.5474303627,0.2045168924,0.2239997419,0.6258458641
2.815180583,-1.241702437,0.2086900502,0.6076770761,1.398087232
2.825116583,-0.7941618133,-0.3104877359,0.6336973319,1.062387843
2.835051583,-0.3802426797,-0.9334676331,0.5774254096,1.161622323
2.844987583,0.431182453,-1.262936016,0.3146410862,1.371103461
2.854922583,0.7177480602,-1.238491146,0.3333485949,1.469742795
2.864858583,0.4357947367,-1.201543175,0.06605124436,1.279838201
2.874793583,-0.01505716503,-1.234891015,-0.4179812308,1.303798622
2.884729583,-0.5467041385,-1.03538928,-0.9647005355,1.517090472
2.894664583,-0.9746443105,-0.9527038032,-0.4854289364,1.446795535
2.904600583,-2.178612326,-0.9965269303,-0.8744989749,2.550326655
2.914535583,-2.234104741,-1.107273195,-1.182306932,2.759552066
2.924471583,-1.534001239,-0.8445560414,-0.2197243674,1.764855095
2.934407583,-1.282781466,-0.2819720346,0.7709530449,1.522959328
2.944342583,-1.166130098,-0.1261840832,1.277630653,1.734393818
2.954278583,-0.6455741233,-0.2217164773,1.792220714,1.917805838
2.964213583,-0.2039175528,-1.242279557,2.115810306,2.462010178
2.974149583,1.068133103,-0.321178785,0.3532548193,1.169979959
2.984084583,1.644583197,0.859420833,-0.3046048522,1.880436698
2.994020583,2.276940274,1.283460912,-1.159224463,2.859288422
3.003955583,2.767693575,1.459000173,-1.126835639,3.325442495
3.013891583,2.963527937,0.4568885672,-0.5860383582,3.05527183
3.023826583,2.680861253,0.5303108847,-0.05080287538,2.733281476
3.033762583,2.561362876,0.7316673571,-0.04641454004,2.664220564
3.043697583,2.325339432,0.717731688,-0.3433227023,2.457684424
3.053633583,1.850490557,0.6873156416,-1.008856369,2.216869249
3.063568583,1.317395228,0.6858608544,-0.9921719241,1.786152408
3.073504583,0.5897507554,0.7945553309,-0.2677925001,1.025103385
3.083439583,-0.01922564507,0.7637381655,-0.009961316586,0.7640450502
3.093375583,-0.3321651185,0.7784924448,-0.3800678845,0.9278123459
3.103310583,-0.2418221283,1.567914505,-0.251133198,1.606207247
3.113246583,-1.609415703,-0.3080669886,1.083831707,1.964641276
3.123182583,-2.578592282,-1.817022264,1.653176265,3.561418232
3.133117583,-1.71496847,-0.6245434427,-0.03735203186,1.825531851
3.143053583,-1.718825294,-0.2196722907,-0.3584846056,1.769499228
3.152988583,-2.411613345,-0.5267657179,-0.02392563701,2.468589371
3.162924583,-1.265707011,-0.02751758158,-0.2796711552,1.296528986
3.172859583,0.9903505164,1.252349632,0.2461981845,1.615483609
3.182795583,1.47786446,1.151837164,0.6718018091,1.990509956
3.192730583,0.7096376798,0.3687248343,1.212676274,1.452627752
3.202666583,0.7478211674,-0.5577688247,2.624122796,2.785024777
3.212601583,-0.1484660679,-1.222673843,2.985022302,3.22913791
3.222537583,0.2441136521,-0.7779042149,1.487760873,1.696513736
3.232472583,2.743396932,-0.6762731749,1.258061192,3.092941981
3.242408583,5.54339842,-2.429599965,0.4247102066,6.067338856
3.252343583,6.843446714,-2.650393751,-0.2513518838,7.343059834
3.262279583,4.412972883,-0.8912074667,-0.1414699475,4.504286199
3.272214583,3.355350443,-0.5545896935,-0.06802182913,3.40155454
3.282150583,3.711693798,-0.8222231859,-0.7029874221,3.866123786
3.292085583,2.11192834,-1.814504453,-4.041562715,4.90784035
3.302021583,-1.439365808,-2.902743207,-6.815409315,7.546356484
3.311957583,-2.091738196,-1.952292336,-5.285895814,6.010616324
3.321891833,-1.886309431,-1.613490043,-2.861143191,3.787829688
3.331827833,-2.102998472,-2.525633465,0.2845418859,3.298846928
3.341762833,-3.834055556,-3.087113518,4.009477873,6.348713625
3.351698833,-3.820573046,-4.289487582,5.060395603,7.655330547
3.361633833,-2.031183554,-5.009861627,5.847653024,7.963633972
3.371569833,-1.818546925,-4.485604949,6.551992249,8.145941757
3.381504833,-1.730048147,-3.870091361,5.371955134,6.843140777
3.391440833,-0.1235943514,-3.663216872,3.073633347,4.783477329
3.401375833,-0.2498909935,-1.901958919,1.155009863,2.239183115
3.411311833,-0.7963855094,0.9010337126,-0.5470817225,1.321132106
3.421246833,-1.204430822,2.002797076,-1.71901372,2.901182156
3.431182833,-1.12678243,2.699789275,-2.316295105,3.731450628
3.441117833,-0.3459499294,2.781890615,-2.316311331,3.636467369
3.451053833,0.9280972579,1.55917818,-2.621243627,3.187996121
3.460988833,2.256791646,-0.5433045673,-0.5847053392,2.393777082
3.470924833,3.266296471,-0.2379185271,2.024614792,3.85024193
3.480860833,2.995452273,7.235459254,0.2113872977,7.833855342
3.490795833,-5.780301286,8.144779056,0.1094867742,9.988057678
3.500731833,-2.949588467,4.804765275,3.273367217,6.519261799
3.510666833,1.998871402,3.079888113,4.387820792,5.721378241
3.520602833,3.316226138,2.032733066,3.399577028,5.165896193
3.530537833,5.253235021,2.282176455,0.6085431218,5.759785785
3.540473833,5.06559027,2.740622136,-0.5360260264,5.784335603
3.550408833,3.194390921,1.842614942,0.9121621335,3.79886864
3.560344833,3.167892802,0.5418328232,1.896194733,3.731579033
3.570279833,2.499336782,-0.1823734868,1.578510829,2.961695608
3.580215833,1.920498685,-0.2563033426,0.865439299,2.122025397
3.590150833,3.168324326,-0.4331728452,-0.1702778634,3.202329199
3.600086833,3.569973955,-0.2230174828,-0.9790987194,3.70851522
3.610021833,2.906666981,0.5134182787,-1.297025868,3.224063797
3.619957833,1.88774843,0.988133837,-0.5107952178,2.191098896
3.629892833,0.8889717838,0.9327145118,-0.3306483507,1.330246415
3.639828833,0.6000392237,1.162773796,-0.08344334878,1.311126525
3.649764833,0.2695092791,0.9995002395,0.1937393776,1.053171841
3.659699833,0.63900273,0.6410852158,1.023772616,1.366537637
3.669635833,0.2542880997,0.3475163984,0.7425635704,0.8583884557
3.679570833,-0.3252575102,0.8116280311,0.3361155339,0.9367529883
3.689506833,-1.063613497,1.090508643,-0.2406632102,1.542206715
3.699441833,-1.612930172,1.050162855,-0.1166052476,1.92820708
3.709377833,-1.499277549,0.7379613,0.3065905666,1.698946092
3.719312833,-0.06532216966,0.4610810208,0.2595543945,0.5331333579
3.729248833,1.773504069,0.4378529567,-0.4537766425,1.882271271
3.739183833,2.414256286,0.5259038383,-0.9482640123,2.646585139
3.749119833,2.493491613,0.9630393416,-1.105592705,2.892625179
3.759054833,2.330241445,1.810135413,-0.6379265499,3.01886828
3.768990833,2.025253893,2.727674646,-0.1563779354,3.40092875
3.778925833,1.42972638,3.658091787,0.2654168129,3.936521196
3.788861833,0.9071072155,4.376701727,0.6966817117,4.523685103
3.798796833,0.2379834312,4.423481206,0.7873930764,4.499312164
3.808732833,-0.988123312,2.929657356,0.1662398859,3.096274471
3.818667833,-2.358353688,-0.2145980769,-2.370761772,3.35087986
3.828603833,-1.699177772,-3.389028066,-4.171305413,5.636710493
3.838539833,-0.2412423769,-4.702861755,-2.492944021,5.328215129
3.848474833,-0.7119753966,-4.131102297,-2.013356563,4.650432217
3.858410833,-2.458807099,-2.334765728,-1.872117069,3.87320096
3.868345833,-3.422643124,-1.069504275,-1.439678049,3.864064988
3.878281833,-3.94381598,-0.5702830356,-0.6909878393,4.044301104
3.888216833,-3.957910693,-0.5488874888,-0.1313704904,3.997948566
3.898152833,-3.703608853,-0.7750636375,-0.2416383795,3.791547347
3.908087833,-3.105341628,-0.9874532211,-0.2206002438,3.266018211
3.918023833,-2.366536282,-1.370493793,-0.2916101463,2.750233388
3.927958833,-2.186592021,-1.653210763,-0.4396416199,2.776252015
3.937894833,-1.324789032,-1.920421502,-0.7068744318,2.437776895
3.947829833,-0.2105348468,-2.180205107,-1.148152103,2.47302901
3.957765833,0.4515982988,-2.00687317,-1.381571928,2.477947122
3.967700833,-0.4301591903,-1.277839984,-1.108908076,1.745734537
3.977636833,1.093522298,-1.812739763,-0.9089660454,2.303917476
3.987571833,1.71204954,-2.265887282,-1.021772722,3.018174663
3.997507833,1.226596448,-1.506547392,-0.9929529659,2.181783555
4.007442833,0.6045871881,-0.9444948971,-0.2082390837,1.140596245
4.017378833,1.31087646,-1.084982439,0.5806635976,1.797986151
4.027314833,0.6890601584,-0.4748734331,0.7518675868,1.12499491
4.037249833,1.352603068,-0.5391050971,0.9640761991,1.746313913
4.047185833,1.151193386,-0.1541156477,1.178830689,1.654883572
4.057120833,1.007628162,-0.146141215,1.110864701,1.506881598
4.067056833,0.5673667368,-0.2962731546,1.257144641,1.410707427
4.076991833,-0.214971714,-0.4516670036,1.596736308,1.673255138
4.086927833,-0.7158810443,-0.7582026064,1.928737704,2.192575197
4.096862833,-0.803993614,-1.209056262,2.29254006,2.713662231
4.106798833,-0.8015494779,-1.9554013,2.434359306,3.223690593
4.116733833,-0.7950029352,-2.306496195,2.521271442,3.50838482
4.126669833,-0.525801512,-2.717160183,2.474050498,3.712189725
4.136604833,-0.1996841687,-3.333807546,1.994010611,3.889758969
4.146540833,0.4229337859,-4.121391242,0.9110023382,4.242011788
4.156475833,1.249567819,-5.439385225,-0.0240881896,5.581120998
4.166411833,1.77131838,-6.455308539,-0.5394594383,6.7156231
4.176346833,1.135896777,-6.834866509,-0.5672231877,6.951791412
4.186282833,0.8181994244,-6.181431974,-0.4800935349,6.253802152
4.196218833,0.4374781501,-4.832551244,-0.9884107026,4.95195864
4.206153833,0.407440711,-3.980948138,-1.809652433,4.391901404
4.216089833,1.017417862,-3.47349285,-2.790973095,4.570538535
4.226024833,1.528037956,-2.877952182,-3.679085338,4.914588251
4.235960833,1.866211089,-2.108163902,-4.074016808,4.95224311
4.245895833,1.985281157,-1.021954132,-4.054819522,4.628962397
4.255831833,1.396339071,0.5636961472,-3.60922222,3.910754554
4.265766833,0.1165417323,2.452866036,-2.766818539,3.699380839
4.275702833,-1.919201188,4.526472893,-1.986577192,5.302714305
4.285637833,-4.354197548,7.336144214,-1.382311601,8.642270164
4.295573833,-6.882715445,10.66443491,-1.23950213,12.75297257
4.305508833,-8.480988693,12.48412,-1.949733302,15.2178146
4.315444833,-9.4395134,12.03908257,-3.096581037,15.6087391
4.325380208,-9.849580972,10.53999564,-3.903100356,14.94456241
4.335316208,-8.988779612,9.270110207,-4.525094705,13.68245534
4.345251208,-7.192939471,9.040659617,-4.800940904,12.51083283
4.355187208,-6.010190417,9.448122255,-4.389561216,12.0273709
4.365122208,-5.454412569,10.96052739,-3.583261168,12.75631364
4.375058208,-5.542332473,13.72852677,-2.585568595,15.02914041
4.384994208,-5.617029483,16.96098804,-2.149588209,17.99574574
4.394929208,-6.670887194,18.30826371,-2.951269834,19.70794889
4.404865208,-7.013666763,17.1418506,-3.592586307,18.86640506
4.414800208,-6.179753823,13.92121358,-3.270719305,15.57841935
4.424736208,-5.414123499,9.870862498,-2.194066809,11.46998644
4.434671208,-4.651376436,5.869131017,-1.533201925,7.644129106
4.444607208,-3.643128762,2.740478879,-1.282565703,4.73577728
4.454542208,-2.1911777,0.2882841039,-0.5979853892,2.289531385
4.464478208,-0.4402450526,-2.115219153,0.3246843369,2.184808387
4.474413208,1.333020743,-4.3746055,1.645475628,4.860216829
4.484349208,2.883077851,-6.696783342,3.082217059,7.915750566
4.494284208,4.146299796,-8.615254798,3.932384966,10.33818498
4.504220208,4.858521945,-10.06237752,3.739012574,11.78290677
4.514155208,5.561031868,-11.33028776,3.396601964,13.07047823
4.524091208,5.5118141,-12.76542954,3.35704555,14.3040568
4.534026208,5.426918961,-14.11189713,3.080821913,15.43011839
4.543962208,5.484501756,-15.43482031,2.558742739,16.57892041
4.553897208,5.173128167,-16.61646775,2.20372217,17.54208217
4.563833208,4.282714752,-17.44329445,1.799433839,18.05126392
4.573769208,2.576617385,-16.66510255,1.239345424,16.90859478
4.583704208,1.279689458,-14.0711397,0.8100742798,14.15241314
4.593640208,1.4814298,-11.39820434,1.024265975,11.53961946
4.603575208,2.184306929,-8.932266272,1.418364656,9.30421065
4.613511208,2.761948978,-6.778995194,1.628097264,7.498922503
4.623446208,3.350842824,-5.348222455,1.50021515,6.487085367
4.633382208,3.70753175,-4.342783198,1.255552444,5.84653483
4.643317208,3.389865387,-3.871306998,1.237211337,5.292343253
4.653253208,2.44774446,-4.118431381,1.497109109,5.019388973
4.663188208,1.419995152,-5.293314761,2.275837781,5.934223201
4.673124208,1.096567528,-6.862960042,3.29608862,7.692001109
4.683059208,1.637458072,-8.021392865,4.213688079,9.207561005
4.692995208,2.15342866,-9.031594094,4.648682332,10.38350588
4.702930208,2.746940345,-9.942067552,4.500190244,11.25353725
4.712866208,3.523040694,-10.69143034,4.105957808,11.98237822
4.722802208,4.010805483,-10.96566241,3.954538604,12.3276392
4.732737208,4.308935713,-10.70487426,3.729555287,12.12727679
4.742673208,4.464852596,-9.893081918,3.115034557,11.29209541
4.752608208,4.134829897,-9.195113234,2.182014236,10.31543076
4.762544208,3.069939953,-9.551772923,1.582642179,10.15704945
4.772479208,1.533779922,-9.828086607,1.604875632,10.07568325
4.782415208,0.2849403736,-9.227133172,0.6074865299,9.25149812
4.792350208,-0.2241746467,-6.999367397,-0.5836366144,7.027234871
4.802286208,0.594204872,-3.151021246,-1.993723074,3.775837128
4.812221208,1.328127208,1.443524932,-2.932458757,3.528030679
4.822157208,0.5215169647,7.195049731,-4.854629453,8.695294573
4.832092208,-0.9342002892,17.70510002,-7.527232976,19.26142605
4.842028208,-5.243464909,33.27895543,-10.13650034,35.18140756
4.851963208,-14.30562474,41.8466326,-9.220298946,45.17527501
4.861899208,-18.39856109,31.66296512,-6.272740924,37.15370357
4.871834208,-8.14624963,19.17382002,-4.317309219,21.27524186
4.881770208,-7.056920956,14.86772927,-5.318363063,17.29550499
4.891705208,-11.59131449,13.95743591,-7.34622189,19.573849
4.901641208,-15.91698055,16.20705507,-7.86621244,24.03947175
4.911576208,-18.93373452,18.39814009,-5.083856971,26.88537638
4.921512208,-17.11809103,18.52087782,0.6332157406,25.22801851
4.931448208,-8.701379607,19.30846503,5.168128213,21.80000867
4.941383208,-4.024713086,20.76148876,3.042536684,21.36573801
4.951319208,-1.004197015,21.37281282,-1.461915887,21.44627561
4.961254208,2.462553995,19.14197375,-4.748687553,19.87534565
4.971190208,2.05146696,11.1138753,-6.191440068,12.886453
4.981125208,-1.06933149,3.612565366,-4.632965308,5.971471
4.991061208,-2.30620588,0.130896939,-1.406267351,2.704312747
5.000996208,-1.62657845,-3.047344265,0.08571199536,3.45534529
5.010932208,-0.7275058937,-6.444072529,-0.2134827206,6.488521438
5.020867208,-0.1450267357,-9.032872295,-0.5883132175,9.053172212
5.030803208,0.1209014162,-11.03605938,0.09870012313,11.03716293
5.040738208,0.3411657375,-12.77451027,0.7314375615,12.79998076
5.050674208,0.7947050196,-14.2080043,0.8745775469,14.2570624
5.060609208,2.348812494,-15.6193561,1.297596556,15.84818482
5.070545208,4.343360903,-16.68704598,2.196995241,17.38243584
5.080480208,5.698695205,-17.78427834,2.724878508,18.87274877
5.090416208,5.974046438,-18.82658195,3.163772854,20.00347164
5.100352208,5.778681607,-19.39579787,4.038447318,20.63732524
5.110287208,4.494057684,-18.02985321,4.427750258,19.10175734
5.120223208,2.426240447,-15.85200863,3.888707142,16.50135944
5.130158208,1.780550841,-13.74275422,3.447022505,14.27990262
5.140094208,2.001419764,-11.57022826,2.915983057,12.09871151
5.150029208,2.399618366,-9.608442968,2.576232053,10.23314791
5.159965208,2.743058086,-8.03621848,2.707608172,8.912705377
5.169900208,2.497311014,-6.795476156,2.384951503,7.622535809
5.179836208,1.868514892,-5.932247032,1.752143898,6.461649247
5.189771208,1.320058196,-5.531739072,0.9687621577,5.768985259
5.199707208,0.8430726027,-5.457906865,0.4810776213,5.543550707
5.209642208,0.466478878,-5.728572723,0.6454343748,5.78366091
5.219578208,0.6681277111,-6.408788676,1.145687063,6.544582933
5.229513208,1.4129323,-7.147272717,1.626178208,7.464873779
5.239449208,2.023465375,-7.753116764,1.87233707,8.228661968
5.249384208,2.454891219,-8.161451222,1.943335278,8.741414585
5.259320208,2.935046442,-8.306507193,2.154867806,9.069510165
5.269256208,3.380189122,-8.173193015,2.385582271,9.160664023
5.279191208,3.988541332,-8.19719642,2.337094382,9.41087144
5.289127208,4.361180585,-8.029424601,2.483218932,9.468787239
5.299062208,3.965759118,-6.93056438,2.596154687,8.396427047
5.308998208,2.617066669,-5.688218164,1.48155113,6.43427211
5.318933208,1.45748399,-3.862998104,-0.9286922121,4.23195973
5.328869208,0.9394718465,-1.11360339,-2.988649622,3.324867881
5.338804208,-0.1547983101,2.512066171,-4.546906866,5.196999231
5.348740208,-1.831846417,8.003254802,-6.935997612,10.74782823
5.358675208,-4.737305363,17.89913052,-9.530939294,20.82449854
5.368611208,-12.89380399,29.5965404,-11.67480688,34.32938247
5.378546208,-27.98210544,33.80292209,-9.40507213,44.87862686
5.388482208,-32.69150906,25.84570826,-0.06085869759,41.6742019
5.398417208,-18.62829234,17.1072117,4.813799223,25.74573034
5.408353208,-14.69360972,14.668248,0.8509154731,20.77940623
5.418288208,-15.4701527,15.16496079,-3.041619841,21.87585682
5.428224208,-10.31462757,18.17882039,-5.06026638,21.50505402
5.438159208,-5.247189585,20.37131576,-5.798085008,21.82066209
5.448095208,-2.053324621,20.79542834,-6.511613717,21.8876014
5.458030208,-1.533130296,18.6521712,-7.351596651,20.10721145
5.467966208,-3.038266463,13.77846784,-6.972892959,15.73843942
5.477902208,-5.076462582,8.563112837,-3.32365064,10.49495247
5.487837208,-5.766083196,3.944958526,-0.0369590807,6.98654272
5.497773208,-4.098849348,0.1150001138,0.950917625,4.209279669
5.507708208,-1.856707901,-3.158072988,0.4457288638,3.690455724
5.517644208,-0.1508350673,-6.366851276,-0.6859742904,6.405474776
5.527579208,1.780572768,-8.970162077,-0.5208325481,9.159995285
5.537515208,3.408410124,-10.75456156,0.6974441886,11.30328635
5.547450208,3.595607271,-12.00471263,1.852717323,12.66783638
5.557386208,3.798958814,-13.26135646,1.869331601,13.92084997
5.567321208,5.184846572,-14.22972788,1.120380606,15.18627809
5.577257208,6.356999887,-15.02993454,0.6633174992,16.3324943
5.587192208,6.316036048,-16.13526646,0.5856948343,17.33730583
5.597128208,5.513178256,-16.98283324,1.261398783,17.89980129
5.607063208,3.826126439,-16.99395932,2.554654658,17.60568537
5.616999208,1.853716758,-16.40390509,3.500464886,16.87535548
5.626935208,0.646565811,-14.84669216,4.133092982,15.42481031
5.636870208,0.5783469307,-12.97465929,4.4424218,13.7263025
5.646806208,0.859040764,-11.41339073,4.25386459,12.21060207
5.656741208,1.561308613,-9.815485858,4.117808068,10.75814996
5.666677208,2.309064584,-8.106876234,3.759431636,9.229655885
5.676612208,2.895584753,-6.647831038,3.094633037,7.883832964
5.686548208,3.186929874,-5.789104854,2.292509655,6.994702106
5.696483208,3.175138671,-5.435124943,1.466038174,6.463076408
5.706419208,3.030053171,-5.524660433,0.879842526,6.362170855
5.716354208,2.853593266,-5.969980284,0.7541446388,6.659759249
5.726290208,2.963618276,-6.43023217,1.172597411,7.176761368
5.736225208,3.096355627,-7.000385982,1.453610795,7.791393098
5.746161208,3.298814299,-7.67323912,1.51229959,8.488098988
5.756096208,3.5940715,-8.190038844,1.334363263,9.042931578
5.766032208,3.676128109,-8.391824502,1.303339984,9.253935998
5.775967208,3.835588111,-8.445073925,1.611963627,9.41432082
5.785903208,4.205078054,-8.370546484,2.418949554,9.674711718
5.795838208,4.479035602,-7.544776962,2.76030591,9.198081759
5.805774208,4.137834489,-6.074886934,1.332295395,7.470002446
5.815710208,3.629754134,-3.753852807,-1.085416303,5.333353028
5.825645208,2.912729082,-0.4353988802,-3.500278945,4.574441559
5.835581208,0.8516221091,4.834770847,-5.470294776,7.350128862
5.845516208,-2.528165017,13.22263386,-8.009759245,15.66479836
5.855452208,-7.022433493,26.10345587,-11.38101119,29.32971865
5.865387208,-17.77168812,39.10461825,-14.9446529,45.47907999
5.875323208,-29.5908265,36.2894482,-10.92546631,48.08229277
5.885258208,-24.1088139,25.79065322,-0.2279870313,35.30502343
5.895194208,-17.82886687,21.13575032,8.221543642,28.84756862
5.905129208,-15.08261094,17.62781971,12.05782289,26.14605656
5.915065208,-11.46594901,17.88382134,5.857746488,22.0366115
5.925000208,-7.725601521,19.36372472,-0.04050629407,20.84803096
5.934936208,-5.426366984,18.52799856,-3.863169135,19.68898842
5.944871208,-3.935527844,15.57880917,-7.677193007,17.80805905
5.954807208,-2.621637145,12.18532377,-11.22420056,16.77312657
5.964742208,-1.925464725,7.929855874,-12.59776297,15.00978549
5.974678208,-3.466946015,3.744631748,-9.016850924,10.36077131
5.984614208,-4.485381293,0.12950881,-3.450769108,5.660673574
5.994549208,-4.086319934,-3.269451921,0.5914062484,5.266601164
6.004485208,-1.918893625,-6.060428524,2.803246108,6.947599253
6.014420208,1.035330223,-8.446016496,3.877093402,9.350879989
6.024356208,3.411195445,-10.81036036,4.276719017,12.11571175
6.034291208,4.968289093,-12.95309593,3.89535338,14.40973173
6.044227208,6.536515839,-14.67509626,2.831932548,16.31270461
6.054162208,7.949394929,-16.25982034,1.70952939,18.17957997
6.064098208,8.126438094,-17.9800361,0.4255626941,19.73579991
6.074033208,6.697435892,-19.34378572,-0.3187413731,20.47289158
6.083969208,4.161085357,-19.2176835,0.2812861562,19.66502256
6.093904208,1.688720027,-16.33297135,1.875228957,16.52677258
6.103840208,-0.2524061733,-13.81842771,3.400274016,14.23286748
6.113775208,-0.7170002013,-12.03662323,4.337604904,12.81441393
6.123711208,0.07368456513,-10.06737923,4.879331016,11.18773548
6.133646208,1.847803177,-8.182960204,4.684472262,9.608303422
6.143582208,3.893389592,-6.008021684,3.983408647,8.192823172
6.153518208,5.530982442,-3.846708931,3.20153271,7.459138561
6.163453208,6.225191367,-2.831539907,2.490095258,7.278131642
6.173389208,5.974421829,-3.235009482,2.168775263,7.131801223
6.183324208,5.3769393,-4.407240565,2.021495887,7.24028254
6.193260208,4.955091342,-6.178909485,1.615545924,8.083430044
6.203195208,4.568214704,-7.545112007,1.310538783,8.917107866
6.213131208,4.222759449,-8.390291362,1.531819643,9.517098188
6.223066208,3.864593517,-9.169201298,1.758246052,10.1044923
6.233002208,3.540514805,-9.646095529,2.059633182,10.47971817
6.242937208,2.948890017,-9.659593826,2.453246397,10.39336919
6.252873208,2.04432751,-9.382311258,2.700761082,9.975026313
6.262808208,1.22924202,-8.902046692,2.566687059,9.34587362
6.272744208,0.4734601611,-7.973743905,1.801564272,8.188430265
6.282679208,0.175775781,-5.854226464,0.8534610584,5.918721179
6.292615208,-0.5845642751,-2.35195011,-0.6243782589,2.502645185
6.302550208,-3.059077873,2.074944116,-1.988413218,4.197277408
6.312486208,-4.797291364,9.093195096,-4.640588908,11.27986112
6.322421833,-6.229447555,25.69049509,-8.453621385,27.75376136
6.332356833,-13.35653978,43.63727457,-12.80577884,47.39827907
6.342292833,-23.14922734,50.57861654,-13.67941133,57.28184243
6.352227833,-21.12067386,42.74601857,-8.711612234,48.46851716
6.362163833,-8.226054769,31.64458381,-8.727058239,33.84093981
6.372098833,-4.132720807,20.4686719,-10.33328838,23.29855702
6.382034833,-3.889852611,13.32617285,-7.126404004,15.60459772
6.391969833,-3.958581369,9.314753113,-4.518744044,11.08395416
6.401905833,0.1590088901,9.49467954,-1.371808832,9.594586123
6.411840833,4.7303501,10.71682129,-1.363937603,11.79350653
6.421776833,4.888605869,9.51399114,-2.993119526,11.10735159
6.431711833,2.843656215,5.069240686,-2.834458838,6.466663646
6.441647833,1.325101566,-0.2526973647,-0.7950036661,1.565816384
6.451582833,0.2094317695,-4.682203542,2.324270707,5.231551012
6.461518833,-0.8480129153,-7.990939397,4.99183583,9.4600562
6.471453833,-1.074097847,-10.37109648,6.119801152,12.08988397
6.481389833,0.001204526424,-12.46259055,5.191708864,13.50074093
6.491324833,0.5616525453,-14.75143283,3.958736905,15.283711
6.501260833,1.267738042,-17.06407328,2.661049132,17.31678201
6.511196833,2.298121228,-19.14126974,1.689725017,19.35264166
6.521131833,2.919018639,-20.72051849,1.677332721,20.99223669
6.531067833,2.89223576,-21.66125363,2.72785591,22.02308185
6.541002833,2.250145993,-21.33111282,4.179873046,21.85293732
6.550938833,1.808173965,-17.9153121,4.747823335,18.62175414
6.560873833,1.56571946,-13.70570509,4.568531331,14.5316657
6.570809833,0.8947426933,-11.01427967,3.846073631,11.70073517
6.580744833,1.2542912,-8.522685188,2.689409298,9.02454052
6.590680833,2.031736993,-6.457790682,1.448034597,6.92299212
6.600615833,2.516004563,-5.067141536,0.4547283134,5.675647993
6.610551833,2.443343845,-4.515964862,0.06158755302,5.134945064
6.620486833,1.91056602,-4.554372883,0.3919572839,4.954412718
6.630422833,1.202410609,-4.839960836,1.103088635,5.107623391
6.640357833,1.030537845,-5.091850115,1.760206331,5.485186612
6.650293833,1.482691629,-5.404018925,2.149496993,6.001844078
6.660228833,2.462911845,-5.822134606,2.364634183,6.749420785
6.670164833,3.821618236,-6.392905884,2.349420897,7.80985212
6.680100833,4.983575469,-6.968094149,2.00858962,8.799135911
6.690035833,5.689824979,-7.338856738,1.609445816,9.424608339
6.699971833,6.115650798,-7.46920053,1.276419403,9.737524723
6.709906833,6.19032442,-7.352298902,0.9083886328,9.654096823
6.719842833,5.878114679,-6.739593732,0.6333540273,8.965238043
6.729777833,4.672222637,-5.501184447,-0.2430760637,7.221618978
6.739713833,3.28153373,-2.946447051,-1.951405313,4.822654512
6.749648833,1.302985642,0.248568061,-3.797784693,4.022775937
6.759584833,-1.421330656,6.327031152,-5.624209864,8.583894258
6.769519833,-4.902509086,19.68769672,-7.665644757,21.68875532
6.779455833,-13.75336574,36.87126019,-13.06803816,41.46587174
6.789390833,-31.31620886,47.57431246,-17.1083636,59.47029719
6.799326833,-35.95749475,41.52597598,-11.72446728,56.16770641
6.809261833,-15.93394449,30.71180323,-1.081252793,34.6161025
6.819197833,-8.237298964,23.51289609,7.181956061,25.92855317
6.829132833,-11.40353934,18.21493396,7.47657153,22.75354149
6.839068833,-14.26494917,16.51866722,-0.1208178011,21.82589605
6.849003833,-15.18356429,15.82968513,-4.135681544,22.32091883
6.858939833,-13.59965531,14.88648714,-7.714725115,21.58877272
6.868875833,-8.769478619,12.73695009,-11.19859677,19.09298883
6.878810833,-1.314089797,7.855068816,-11.57568956,14.05081944
6.888746833,3.693407508,2.629696947,-9.060241942,10.13136462
6.898681833,5.784625302,-2.31217618,-5.479407077,8.296502304
6.908617833,6.288494493,-5.991065344,0.02957404733,8.685557067
6.918552833,7.654847288,-8.831268486,7.093230411,13.67120725
6.928488833,7.945491328,-11.32230047,9.552680411,16.81008695
6.938423833,5.435821347,-13.7038714,7.008465664,16.32368941
6.948359833,4.415393338,-15.57454889,4.050606018,16.68741084
6.958294833,4.805257611,-17.55321509,1.942519738,18.30243819
6.968230833,5.064879248,-18.79100983,1.320581814,19.50638328
6.978165833,5.463382198,-19.40412665,1.188292069,20.19358101
6.988101833,4.938005193,-19.40506337,2.071904733,20.13040409
6.998036833,2.706078832,-17.32729739,3.802101692,17.94475062
7.007972833,1.343796576,-14.43263211,4.582619612,15.20220581
7.017908833,1.814123507,-12.69001333,3.825447285,13.37765036
7.027843833,2.654758113,-11.26020538,2.530424381,11.8424243
7.037779833,3.229281842,-9.75779372,1.566583971,10.39696998
7.047714833,4.679473185,-8.355068904,0.8947865474,9.61796697
7.057650833,5.53627885,-7.285516682,0.3786542836,9.158193922
7.067585833,5.306410185,-6.230841531,-0.2405310631,8.187748801
7.077521833,4.832373489,-5.102107301,-0.88407094,7.082719384
7.087456833,3.518962846,-4.72639329,-1.107727231,5.995744545
7.097392833,2.191010762,-5.877396056,-0.3924396792,6.284769006
7.107327833,2.221318635,-7.027412982,0.7428981042,7.407475095
7.117263833,2.316847813,-7.59078227,1.298451565,8.041998242
7.127198833,2.239128377,-8.121411828,1.18168223,8.506903012
7.137134833,2.081892655,-8.75893492,0.5744095619,9.021261791
7.147069833,1.735798007,-9.327396548,0.0413164258,9.487624999
7.157005833,1.23627856,-9.587607,0.1654995918,9.668401252
7.166940833,1.079435186,-9.641801918,1.240822577,9.781061559
7.176876833,1.270383614,-9.887604246,2.750738404,10.34142901
7.186812833,2.113384881,-10.2318158,3.612746922,11.05479039
7.196747833,2.804363219,-10.55955341,3.470205838,11.46346151
7.206683833,1.980394346,-10.70117882,2.439673694,11.15299052
7.216618833,1.208241161,-9.473290426,0.04758025557,9.550148798
7.226554833,0.8562162665,-6.522972518,-2.881059684,7.182115404
7.236489833,-0.07040778548,-3.22957508,-3.915557849,5.076091579
7.246425833,-2.206510561,2.416719133,-3.629270861,4.886801327
7.256360833,-6.341912901,14.40385445,-4.661012063,16.41389399
7.266296833,-16.16256594,34.18039962,-11.28522444,39.45737633
7.276231833,-38.58867865,55.38042955,-21.4293016,70.81873385
7.286167833,-38.19255785,46.99305244,-18.02057134,63.18037231
7.296102833,-12.23515725,29.53302326,-5.29894446,32.40335397
7.306038833,-8.565589718,23.86230932,2.138049314,25.44308134
7.315973833,-15.07214559,18.96101178,11.38210579,26.76269554
7.325909708,-16.72152818,15.0666574,11.32209698,25.1953081
7.335844708,-10.0242069,14.22243055,5.536097002,18.25953517
7.345780708,-6.136026006,14.11576798,0.8592553568,15.4157076
7.355715708,-2.803672662,13.06096303,-2.811236036,13.65109459
7.365651708,-0.002407591045,8.836228094,-3.644221022,9.558204831
7.375587708,2.013512684,3.634531016,-3.573086135,5.480054157
7.385522708,2.631230379,-1.116083779,-4.436186621,5.277193198
7.395458708,2.769147193,-5.523365275,-5.328676382,8.159076671
7.405393708,3.916800089,-9.005075217,-5.39779398,11.2057522
7.415329708,5.876721287,-11.81581482,-4.237749664,13.86029781
7.425264708,8.107023,-14.30719062,-2.194799027,16.59025823
7.435200708,9.029807185,-16.56034384,0.7191679104,18.8759002
7.445135708,8.169314557,-18.69769996,2.29541806,20.53315924
7.455071708,6.862539042,-19.80338038,3.27329705,21.21279779
7.465006708,4.952777599,-19.56829658,4.992535157,20.79359623
7.474942708,4.595827303,-17.50319918,4.728042204,18.70395662
7.484877708,3.855888475,-15.56050037,3.231910458,16.35366298
7.494813708,2.890127254,-13.8998958,2.31355583,14.3844527
7.504748708,1.786125869,-11.88199946,2.16040585,12.20817391
7.514684708,0.3628898978,-10.12685594,2.76294856,10.50327497
7.524620708,-0.01069660395,-8.630449373,3.534606779,9.326211228
7.534555708,0.5794178483,-7.576477057,3.101796753,8.207306058
7.544491708,1.453739726,-6.775405004,1.879492162,7.179969564
7.554426708,1.231122777,-5.602076399,0.904082597,5.80657288
7.564362708,0.7898822361,-4.316269584,0.607210249,4.429763126
7.574297708,0.3536635762,-3.722867827,0.7336042473,3.810905138
7.584233708,0.1924362525,-4.336260629,1.283317363,4.526266829
7.594168708,1.267324643,-5.912504493,2.241335993,6.448829984
7.604104708,2.439408377,-7.872961296,2.758183079,8.69147897
7.614039708,3.59100025,-9.259108086,2.951106112,10.36027956
7.623975708,4.881460572,-9.775457574,2.869722518,11.29705871
7.633910708,6.127896037,-10.13914094,1.872582507,11.99415916
7.643846708,7.036387873,-10.25242957,0.6182027221,12.45011008
7.653781708,6.513052132,-9.437313677,0.02859551579,11.46662789
7.663717708,4.733119926,-8.136115821,-0.7221995455,9.440358948
7.673652708,3.545370918,-6.611808681,-2.066767077,7.781850367
7.683588708,2.615037977,-3.958119439,-3.276345496,5.765377084
7.693524708,1.819212923,-0.5518198675,-3.921950025,4.358409437
7.703459708,-0.09746022105,3.627899104,-4.781789811,6.003054572
7.713395708,-3.02500527,15.24139559,-6.559316472,16.86639941
7.723330708,-8.611299741,39.04295351,-10.61688535,41.36695489
7.733266708,-28.46742668,52.87719443,-14.32862418,61.73897913
7.743201708,-34.34136645,39.34182575,-5.769424295,52.53946098
7.753137708,-11.0320365,25.16797854,7.81469847,28.5692577
7.763072708,-9.613403746,19.32697965,7.915942424,22.99155972
7.773008708,-14.7424632,16.31592321,0.4287628752,21.99394028
7.782943708,-13.43107073,13.27070031,-6.858513819,20.08841356
7.792879708,-9.622837644,10.54118262,-9.410010688,17.09572568
7.802814708,-4.440132322,9.648532063,-10.51757507,14.94751924
7.812750708,-1.462214095,9.150462141,-9.757417159,13.45645633
7.822685708,0.08428118169,8.417104939,-5.618876034,10.12059913
7.832621708,0.5785790652,5.671847715,-0.9470710342,5.779407736
7.842556708,-0.1509470415,1.117774209,2.895590308,3.10751467
7.852492708,-0.4960845003,-2.232099146,4.073822388,4.671658729
7.862428708,0.2160335684,-4.878189347,3.460609387,5.984915968
7.872363708,1.209972229,-7.626851989,2.228252263,8.037288859
7.882299708,2.274148813,-10.28962488,1.731096261,10.67917727
7.892234708,3.539923359,-12.5503596,1.798806725,13.16352115
7.902170708,4.434145066,-14.59923916,1.851013006,15.36963486
7.912105708,4.89610083,-16.55662735,1.762815213,17.35514995
7.922041708,5.238152128,-18.06094754,1.762883187,18.88766319
7.931976708,4.846667007,-18.92217223,1.762780129,19.61239855
7.941912708,3.699739165,-18.45192278,2.430748065,18.97551212
7.951847708,2.388691382,-16.7163955,3.388309735,17.2227863
7.961783708,1.353956406,-14.49243275,4.19358886,15.14760683
7.971718708,1.339935367,-12.58101889,4.363477664,13.3834749
7.981654708,2.316249643,-11.16508521,3.741900806,12.00108169
7.991589708,3.187915422,-9.897160935,3.074384129,10.842898
8.001525708,3.491033035,-8.791037888,2.386337878,9.755217438
8.011460708,3.722440395,-7.862232825,1.682835389,8.860203295
8.021396708,4.013164542,-7.046369655,1.189231278,8.195796849
8.031332708,3.907462086,-6.383921052,1.123508574,7.568684131
8.041267708,3.546383363,-5.891779622,1.377976768,7.013467191
8.051203708,2.919454257,-5.603141177,1.631064142,6.525241332
8.061138708,3.011500541,-5.445144732,2.114491467,6.571895527
8.071074708,3.414170801,-5.635630646,2.657356908,7.104818138
8.081009708,3.644040928,-6.002586697,2.640918338,7.502301714
8.090945708,4.227422604,-6.547823185,2.094489019,8.070438314
8.100880708,4.895086046,-7.118437757,1.775871899,8.819736079
8.110816708,5.31579672,-7.298989837,2.327117278,9.324613785
8.120751708,5.333503844,-6.622700289,1.862628207,8.704929995
8.130687708,4.835906376,-4.913260362,-0.8217998475,6.942728055
8.140622708,4.377650438,-2.336536265,-3.130933721,5.867364914
8.150558708,2.971052426,1.567514555,-3.809112504,5.07873926
8.160493708,-0.7455387068,8.979267361,-4.435993663,10.04296321
8.170429708,-7.477742143,22.65835125,-6.844802098,24.82274813
8.180364708,-17.58936258,42.54622155,-11.43929857,47.43863611
8.190300708,-33.58292878,51.26264721,-9.971642768,62.08949802
8.200236708,-29.8868453,35.4819524,1.632162541,46.42043109
8.210171708,-13.32681253,22.2035057,9.900969812,27.72415555
8.220107708,-11.32156606,16.40572942,4.041661533,20.33865393
8.230042708,-14.00705655,13.09334958,-4.861539693,19.78049556
8.239978708,-14.25379736,10.782268,-10.62079831,20.79012744
8.249913708,-12.97765424,9.229475566,-13.16296419,20.6607443
8.259849708,-9.688573211,9.612764645,-13.10127373,18.91869626
8.269784708,-5.878652038,10.52830121,-10.53392974,16.01147563
8.279720708,-2.965208719,9.095983633,-5.559924406,11.06535767
8.289655708,-1.027872684,4.550316669,2.09685948,5.114559974
8.299591708,-0.4214442077,-0.9657425094,7.668857217,7.740907235
8.309526708,-1.686649528,-5.145053346,7.679696785,9.396494201
8.319462708,-1.643698221,-7.828475679,4.907191536,9.384418153
8.329398583,0.6435790533,-9.852560713,2.737654674,10.24606752
8.339334583,2.155910511,-11.9128751,0.9559076388,12.1440645
8.349269583,3.7604204,-13.89351766,-0.6394432446,14.40761889
8.359205583,5.321580786,-16.11880421,-1.157812872,17.01398254
8.369141583,6.713135081,-18.38861614,-0.05890952826,19.57577219
8.379076583,7.424044822,-20.23860735,2.03096019,21.65277045
8.389012583,6.478492749,-19.74445448,3.209874641,21.02659378
8.398947583,4.30231725,-16.87125901,2.352558367,17.56940082
8.408883583,2.823491215,-14.17473014,1.803487129,14.56528898
8.418818583,2.551640418,-12.10578176,2.38487929,12.59954245
8.428754583,1.808099998,-10.6581971,2.868708318,11.18462688
8.438689583,1.191990579,-9.310997447,3.071073436,9.876588836
8.448625583,1.178297277,-7.326691021,3.061824602,8.027674363
8.458560583,1.248759149,-5.199648798,2.723400332,6.001054608
8.468496583,1.951151251,-3.153079466,2.240333488,4.332204457
8.478431583,2.649684484,-1.715298253,1.420638053,3.461399781
8.488367583,3.105830455,-1.566892996,0.3091471155,3.492407252
8.498302583,3.242530755,-2.526666083,-0.2958702815,4.121357352
8.508238583,2.796691964,-4.018550997,-0.5482206139,4.926538734
8.518174583,2.691144459,-5.74635586,-0.5368023174,6.367968349
8.528109583,3.087559075,-7.618096368,-0.1400510475,8.221193807
8.538045583,3.588864554,-9.608909576,0.1548240378,10.25841423
8.547980583,4.539006108,-11.99597105,-0.2042876816,12.82761206
8.557916583,5.264979154,-14.65162437,-0.990036521,15.60032931
8.567851583,4.678580607,-16.30640745,-0.9451109013,16.99062315
8.577787583,4.5617126,-17.08711716,-0.6687802604,17.69819374
8.587722583,5.117912325,-15.91129238,-0.7671041152,16.73172736
8.597658583,5.982753527,-13.30331491,-1.589224975,14.67300799
8.607593583,5.110731944,-10.49474871,-3.802734361,12.2768123
8.617529583,3.65025184,-6.589595109,-6.868710194,10.19442406
8.627464583,0.09303270936,-1.034594643,-9.053026478,9.112427206
8.637400583,-5.974224193,6.349540009,-9.686233156,13.03192717
8.647335583,-14.47982265,25.16599283,-10.17447449,30.76544149
8.657271583,-27.95814355,59.30826159,0.2001104307,65.56803892
8.667206583,-43.57607527,56.05979649,6.345720023,71.28704848
8.677142583,-25.51958565,22.57646684,0.2676714993,34.07371061
8.687078583,-12.83596801,13.6301193,-1.761715498,18.80547443
8.697013583,-8.527239,10.39220492,-1.666411145,13.5457984
8.706949583,-6.3372936,9.470673212,-0.4596990314,11.40465977
8.716884583,-6.859895516,11.32028201,-2.936234596,13.55833415
8.726820583,-9.487673407,11.7285732,-3.612510695,15.5121117
8.736755583,-10.48184742,11.15916198,-3.750897624,15.76278067
8.746691583,-8.965657382,9.643856045,-6.59203866,14.72555416
8.756626583,-9.543879767,7.637521403,-9.461524658,15.45761376
8.766562583,-8.533211346,4.975776452,-9.787517456,13.90573785
8.776497583,-6.152990533,0.2778380531,-5.937908306,8.555421762
8.786433583,-4.278838925,-3.703198963,-4.451806873,7.200050662
8.796368583,-4.414407789,-6.931108755,-4.158910193,9.209983643
8.806304583,-5.892298855,-10.01742413,-0.8875908177,11.65571917
8.816239583,-6.262023563,-12.6830528,3.961058249,14.68886483
8.826175583,-3.978456347,-14.06485043,5.875974598,15.75357769
8.836110583,-0.5171499717,-13.90515011,5.402444855,14.92672282
8.846046583,2.371706098,-13.1244556,4.131619191,13.96232795
8.855982583,4.967028433,-12.69904377,3.517827609,14.08233628
8.865917583,7.500570257,-11.6581622,2.537264746,14.09287098
8.875853583,10.13365625,-9.152307522,0.3570988154,13.65954763
8.885788583,12.58377409,-6.402884742,-1.076132386,14.16002699
8.895724583,13.11855459,-4.386980547,-0.5570010853,13.84385507
8.905659583,10.23665612,-4.358903972,1.481820102,11.22430235
8.915595583,7.399825071,-5.306986136,2.479458003,9.437649332
8.925530583,5.679908102,-6.527543287,2.678544002,9.057857107
8.935466583,5.403689142,-7.903573809,3.044752779,10.04673354
8.945401583,6.120985798,-9.153531929,3.830409232,11.65871557
8.955337583,6.776952177,-9.986856054,4.344062569,12.82712962
8.965272583,6.483169352,-10.33174588,4.166548119,12.88939801
8.975208583,5.893094661,-10.60178784,3.66289469,12.67056698
8.985143583,5.613132899,-10.9265422,2.628800569,12.56213269
8.995079583,5.236582736,-11.1757213,1.317270098,12.41183893
9.005015583,4.474142652,-11.44738294,-0.1294713879,12.29135027
9.014950583,2.967099709,-11.70079074,-1.808672148,12.20587889
9.024886583,1.618315457,-11.5427826,-2.025876767,11.83042483
9.034821583,0.1132345471,-11.03590969,-1.627717488,11.15587688
9.044757583,-1.448450334,-9.762094932,-0.4762897749,9.880453318
9.054692583,-3.369969066,-7.149515709,-0.2137122238,7.906828649
9.064628583,-5.600037475,-3.338954265,-2.323861256,6.921659226
9.074563583,-7.318469836,2.343065851,-4.024653736,8.67454875
9.084499583,-10.00709795,6.716799531,-4.178152503,12.75595404
9.094434583,-10.60114699,14.00049013,-5.836170262,18.50564575
9.104370583,-13.01524598,22.51676911,-4.979049139,26.4800387
9.114305583,-14.85191606,27.51068421,1.633519095,31.30631791
9.124241583,-7.891413939,25.86909245,4.238272405,27.37603534
9.134176583,2.586533678,16.70861987,4.442123884,17.48143584
9.144112583,3.00246747,7.932395904,8.087244208,11.71926766
9.154048583,-2.47319505,2.994794753,8.681301438,9.510545937
9.163983583,-4.33454184,1.65245121,4.613035659,6.542090335
9.173919583,-0.05854056895,3.121035554,-0.2854294932,3.134606822
9.183854583,3.720219915,5.644944676,-2.406622746,7.176159812
9.193790583,6.020175707,9.385837129,-3.580943624,11.71151619
9.203725583,7.334429226,11.71453871,-2.839575151,14.10983545
9.213661583,7.516396916,11.03372634,-1.381790614,13.42194788
9.223596583,5.889740113,9.11072154,-0.8183050398,10.87951785
9.233532583,3.050676886,7.092809411,-0.1236125509,7.722036964
9.243467583,-0.04459466726,5.391321112,1.620272813,5.629708341
9.253403583,-1.943686988,4.050526496,3.469913185,5.676705164
9.263338583,-2.552251745,2.632539863,4.428135005,5.749142086
9.273274583,-2.238971964,1.301211305,3.751912701,4.558837048
9.283209583,-2.276819236,-0.2904083973,2.308176684,3.255137859
9.293145583,-3.200777835,-2.253138013,0.5985197517,3.959777209
9.303080583,-4.196144678,-4.41640783,-0.8242492461,6.147493399
9.313016583,-3.853922056,-6.697080381,-1.992555678,7.979591404
9.322952583,-2.201645678,-8.749022135,-2.441535301,9.346321557
9.332887458,-0.2604943344,-9.911106545,-1.724528668,10.06339353
9.342823458,1.934524986,-10.05662503,-0.9053372633,10.28094011
9.352758458,4.570871679,-9.318890018,-0.8452173615,10.41388359
9.362694458,6.692972127,-7.75249579,-1.101944042,10.30103624
9.372629458,7.556628683,-6.040640377,-1.209945624,9.749663668
9.382565458,7.149274803,-4.449058097,-1.021960564,8.482372991
9.392500458,6.092625048,-3.117288659,-0.5138538963,6.863061589
9.402436458,4.681498368,-2.265252274,-0.09461028814,5.201609937
9.412371458,3.082137537,-1.589788939,0.07446312189,3.468795962
9.422307458,1.644289082,-0.6828910536,0.4014382517,1.825151896
9.432242458,0.158184725,0.5100584686,0.8951116526,1.042308457
9.442178458,-1.501676369,1.686838685,1.297451545,2.604580039
9.452113458,-2.888906648,2.503857265,1.622863129,4.15316356
9.462049458,-3.70148836,2.777037426,1.953560597,5.022882832
9.471985458,-3.699271388,2.568124012,2.189708587,5.007463773
9.481920458,-3.084286681,2.109925668,2.277868227,4.376447682
9.491856458,-2.252559431,1.633222641,2.232631828,3.567363882
9.501791458,-1.52630718,1.20359087,1.917390305,2.730316863
9.511727458,-0.9183145738,0.7815370899,1.429800932,1.870409737
9.521662458,-0.4371635699,0.3452710676,0.9336307704,1.087193871
9.531598458,0.03284264088,0.05521467268,0.4857007223,0.4899311082
9.541533458,0.6201875594,-0.06142441571,0.05877383631,0.6259871656
9.551469458,0.8797746983,-0.1459342235,-0.2217282083,0.9189470691
9.561404458,0.8354487106,-0.3734090388,-0.3909980482,0.9951323188
9.571340458,0.7902105573,-0.8454606056,-0.4386932381,1.237613881
9.581275458,0.7363229102,-1.447788137,-0.3891006267,1.670227893
9.591211458,0.6574267218,-2.008752465,-0.2332495254,2.126429332
9.601146458,0.7769873714,-2.549133425,-0.1930995826,2.67190532
9.611082458,1.081049602,-3.13638508,-0.2682240611,3.328291418
9.621018458,1.502863354,-3.839472417,-0.6765520871,4.178261531
9.630953458,1.931987879,-4.425448794,-1.410767076,5.030649853
9.640889458,2.162429572,-4.804843628,-2.171184608,5.698830278
9.650824458,2.358027121,-5.432753897,-2.631764522,6.480840325
9.660760458,2.816989988,-6.449712169,-2.586067362,7.498130704
9.670695458,3.467146282,-7.409485255,-2.100898152,8.446025582
9.680631458,4.201218307,-8.033266806,-1.665093475,9.217165894
9.690566458,4.962230208,-7.916831785,-1.512794557,9.46512026
9.700502458,5.501403133,-7.062242507,-1.51652742,9.079678467
9.710437458,5.414904102,-6.05014678,-1.505758603,8.257891466
9.720373458,4.519164459,-4.777933572,-1.812990024,6.82190805
9.730308458,3.933732164,-2.708139099,-1.955096076,5.160490944
9.740244458,3.493132478,0.2053986526,-2.128281248,4.095576172
9.750179458,2.624237694,4.248412646,-2.389003916,5.535609559
9.760115458,0.7257131374,9.749189542,-2.540971881,10.10098482
9.770051458,-1.929998072,14.46834339,-2.983190954,14.89823081
9.779986458,-4.819164044,18.9321125,-3.485200145,19.84429001
9.789922458,-8.859190695,21.16970628,-1.931329483,23.0298015
9.799857458,-12.27958206,19.00210835,4.204130512,23.01180068
9.809793458,-13.45449935,15.74179446,13.73622756,24.84978054
9.819728458,-12.00129786,13.61944112,15.92386623,24.14725331
9.829664458,-9.11722072,12.0785466,11.68005066,19.11644802
9.839599458,-9.202511716,11.26806286,7.331775759,16.29142101
9.849535458,-9.400842254,10.78932091,3.800711224,14.80644072
9.859470458,-9.283859349,9.830900288,1.359931383,13.58992488
9.869406458,-8.319370483,8.444378107,0.823686744,11.88267254
9.879341458,-6.202808225,6.791224646,1.595447874,9.334935243
9.889277458,-3.709931739,5.131347472,1.936135894,6.62140035
9.899212458,-1.179101561,3.630713369,1.787910147,4.215327123
9.909148458,1.261710147,1.787773322,1.208624153,2.499763647
9.919084458,3.45946538,-0.5937718856,0.1692979431,3.514132547
9.929019458,5.410866015,-3.275364041,-0.8234563637,6.378366642
9.938955458,6.654238417,-6.070049533,-1.539252623,9.137488105
9.948890458,7.298498086,-9.020453394,-2.125490956,11.79637086
9.958826458,8.158077378,-11.19069017,-2.657387606,14.10132908
9.968761458,8.432051591,-12.67439424,-3.395432521,15.59707426
9.978697458,7.667618777,-13.99452246,-4.165342423,16.49209247
9.988632458,5.717657726,-14.68740348,-4.095394521,16.28446153
9.998568458,4.268056952,-15.17994837,-3.44255874,16.13996138
10.00850346,2.534152858,-15.32294086,-1.930779845,15.65063443
10.01843946,1.317307228,-15.15737929,-0.02938211247,15.21454266
10.02837446,1.56454914,-15.6207033,1.529312357,15.77317285
10.03831046,0.8627631015,-15.27255306,2.74791186,15.54175848
10.04824546,0.1705565563,-13.69792595,3.149303334,14.0563287
10.05818146,0.5590382552,-12.07447226,2.721630964,12.39002337
10.06811746,1.579871184,-10.41923309,1.591091698,10.65776637
10.07805246,2.78546414,-8.900543958,0.3387818642,9.332377316
10.08798846,3.261487721,-7.518402511,-0.3044833032,8.200999241
10.09792346,3.390645698,-6.040432216,-0.6726519942,6.959580469
10.10785946,3.469114163,-4.513987918,-1.048052522,5.788717828
10.11779446,3.789859377,-3.610453352,-1.441224053,5.429137525
10.12773046,4.177366345,-2.83838115,-1.425392132,5.247717586
10.13766546,4.376429831,-2.038393171,-0.6782303111,4.875262161
10.14760146,3.909316531,-1.099048501,0.5774966725,4.101727167
10.15753646,3.052399768,-0.008729308248,1.653486167,3.471489169
10.16747246,1.997526104,1.256107637,1.963271652,3.069585072
10.17740746,1.066829758,2.756649939,1.360579401,3.253985391
10.18734346,0.7553170055,4.161346436,0.5046977413,4.259345929
10.19727846,0.03047305673,5.634234915,0.2171422005,5.638500015
10.20721446,-1.950090567,7.717069849,0.3652356546,7.968024683
10.21715046,-4.790160685,10.96816034,-0.04481905416,11.96863357
10.22708546,-6.368314834,14.82143804,-1.27740115,16.18215724
10.23702146,-6.714230264,16.68837213,-1.931055833,18.09175583
10.24695646,-6.864764493,15.08629118,-0.9868461339,16.60406692
10.25689246,-5.916536733,11.77087196,0.8114040828,13.19913672
10.26682746,-4.853556197,10.60178083,2.746055076,11.97896418
10.27676346,-5.60898313,11.53781948,3.441619678,13.28257189
10.28669846,-6.82927891,13.49476094,1.931310772,15.24721563
10.29663446,-8.002301706,14.89618416,0.04148964956,16.90960841
10.30656946,-8.737112526,14.85142256,-1.135652071,17.26822495
10.31650546,-8.633078281,13.54283207,-1.272306325,16.11077603
10.32644008,-7.682392936,11.89232681,-0.23829041,14.15992163
10.33637608,-6.155648092,10.55021306,0.9238705981,12.2495933
10.34631108,-4.699973815,9.218171729,1.642843065,10.47680186
10.35624708,-3.317637071,7.631776514,1.981185329,8.554286867
10.36618208,-1.598219454,5.679516338,2.095041142,6.261022971
10.37611808,0.4023489556,3.458341545,1.420985524,3.760480127
10.38605408,2.018965212,1.036908386,0.4294885147,2.309948033
10.39598908,3.301978812,-1.230745339,-0.1177767373,3.525857275
10.40592508,4.574020697,-3.182500316,-0.5062285423,5.595198024
10.41586008,5.522313945,-5.123610436,-1.373240523,7.657226962
10.42579608,5.857996164,-6.961787927,-2.277019211,9.379095195
10.43573108,5.971934423,-8.539142177,-3.19395852,10.89873024
10.44566708,6.191716057,-10.92984003,-4.256758962,13.2634365
10.45560208,4.81098262,-13.00618631,-3.893705342,14.4037279
10.46553808,3.161065885,-14.12305362,-2.617075732,14.70721137
10.47547308,2.784054084,-14.90649982,-1.747861397,15.2646557
10.48540908,2.589500847,-15.39712682,-0.773563242,15.63251193
10.49534408,2.532183516,-15.2154819,1.019883049,15.45842826
10.50528008,2.989777257,-14.57834706,2.435515008,15.07974484
10.51521608,3.382217521,-13.72101895,3.076447027,14.46272044
10.52515108,3.172630801,-12.33811152,3.43035794,13.19325349
10.53508708,3.21817067,-10.74244379,3.058880821,11.62383211
10.54502208,3.153886966,-9.507929331,2.199721359,10.25604686
10.55495808,3.298315239,-8.581633308,1.163051027,9.266930524
10.56489308,3.684826719,-7.878657069,0.1704054058,8.699438094
10.57482908,4.17886177,-7.484176419,-0.9433734012,8.623557023
10.58476408,4.324424111,-7.218742064,-1.531253486,8.553105759
10.59470008,4.516937839,-7.167346208,-1.457769042,8.596433545
10.60463508,5.184179989,-7.293182382,-1.821434573,9.131476076
10.61457108,5.727619627,-7.572227885,-2.25526523,9.75861071
10.62450608,6.287551922,-7.591413769,-2.189268876,10.09731501
10.63444208,6.589426124,-7.033033326,-1.882235237,9.819720153
10.64437708,6.116841291,-5.877538143,-0.917940352,8.53251525
10.65431308,5.462355427,-3.853329148,-0.04716378763,6.684885695
10.66424908,4.600224701,-0.6748692584,0.42324018,4.668688046
10.67418408,1.493115168,2.8643691,1.53181248,3.574975905
10.68412008,-3.948103158,8.646411687,1.470943111,9.618296483
10.69405508,-9.025758573,18.56991725,-2.474974358,20.79499081
10.70399108,-14.19219577,30.95410483,-7.601300826,34.89061193
10.71392608,-19.44889761,37.11271746,-6.659923664,42.42602973
10.72386208,-17.03223051,28.54754289,1.293507013,33.26758545
10.73379708,-7.615955703,17.53727558,7.426271442,20.51117558
10.74373308,-6.721857957,14.55631592,10.02989156,18.91212395
10.75366808,-8.613901752,14.069865,7.315429283,18.04649302
10.76360408,-9.56804397,15.26569311,1.550412911,18.08293759
10.77353908,-9.428223596,16.05853345,-3.119156259,18.88112901
10.78347508,-7.906431928,14.36751401,-4.912468064,17.1192718
10.79341008,-6.371839535,11.75032367,-3.515259511,13.82126965
10.80334608,-5.791111034,10.09467052,-0.9390489466,11.67566499
10.81328208,-4.821371952,7.947137904,1.117138763,9.362191377
10.82321708,-3.859575729,5.548642788,2.510247102,7.210069494
10.83315308,-2.398860567,3.115883573,3.060030384,4.982674825
10.84308808,-0.4880094954,0.1411734205,2.165022958,2.223827244
10.85302408,1.706808096,-3.100994223,0.7453352237,3.617303366
10.86295908,4.000989178,-6.323079604,0.06262148693,7.482858513
10.87289508,5.581983612,-9.805009986,-0.02508660167,11.28261456
10.88283008,6.12797322,-12.1838608,-0.3836004433,13.64352114
10.89276608,7.0113308,-13.93761034,-0.7064978711,15.61777452
10.90270108,7.709010631,-15.26800393,-1.421393806,17.16278384
10.91263708,8.534200695,-16.89042618,-2.395288211,19.07502251
10.92257208,8.526506928,-17.89528656,-2.155059156,19.93958077
10.93250808,7.512371693,-17.2035972,-0.7799823153,18.78850333
10.94244408,5.953444358,-15.59262965,1.353147736,16.74528614
10.95237908,5.268567005,-13.97903202,3.006297981,15.23840418
10.96231508,4.21779107,-12.4170232,3.530787377,13.58082052
10.97225008,2.954244605,-10.72747257,3.279889201,11.6001682
10.98218608,2.518060736,-9.18346558,3.144416231,10.02816151
10.99212108,2.522807798,-7.971078159,3.380115155,9.018194091
11.00205708,2.766197857,-6.898672496,3.667172513,8.288044826
11.01199208,3.329943998,-5.861213887,3.313958295,7.511635963
11.02192808,3.385381157,-5.000944623,2.198463915,6.42677962
11.03186308,3.06124105,-4.50516564,1.039850413,5.545178364
11.04179908,2.773427647,-4.747621021,0.7666030088,5.5515301
11.05173408,2.185105074,-5.65729341,0.8980389149,6.130752548
11.06167008,2.016294789,-6.645415553,0.8899602556,7.001358568
11.07160508,2.483216301,-7.51862412,0.8491443515,7.963486547
11.08154108,3.320155759,-8.199038293,1.026827787,8.905169201
11.09147708,4.172510524,-8.626375033,1.046661834,9.639486048
11.10141208,4.129903326,-8.020661963,0.8513537219,9.061562943
11.11134808,2.923670099,-6.281387202,0.6197759154,6.956133568
11.12128308,2.769416749,-3.27535527,0.1153141093,4.290794637
11.13121908,1.361787582,1.732675593,-0.4817424497,2.25581602
11.14115408,-4.124859518,8.741790884,-1.82743177,9.837320812
11.15109008,-7.317534281,18.37267897,-5.050011533,20.41088575
11.16102508,-10.86232457,37.09381224,-12.2258707,40.53902954
11.17096108,-19.38786788,54.7132716,-16.12923097,60.24602561
11.18089608,-24.56600302,47.74314262,-4.65316393,53.89385963
11.19083208,-14.13616541,28.40218813,2.741411218,31.84385024
11.20076708,-7.286567427,17.69433998,4.171843649,19.58540302
11.21070308,-7.469399335,11.58778277,1.014368247,13.82380479
11.22063808,-7.888852859,7.923267231,-5.285473645,12.36723068
11.23057408,-5.403435373,5.791881697,-10.01504431,12.76887309
11.24051008,-1.897713255,6.354317769,-11.12929323,12.95530153
11.25044508,-0.9141136417,6.704892261,-9.124808067,11.36016313
11.26038108,-1.824593239,4.749279292,-5.497280846,7.490319818
11.27031608,-1.919597922,1.977412559,-1.610907912,3.192184348
11.28025208,-1.004494931,-0.898389017,1.065730189,1.718107601
11.29018708,-0.1814227295,-3.976184996,1.677584882,4.319404168
11.30012308,0.3726073855,-7.058252367,1.367712858,7.199194483
11.31005808,1.190373531,-10.05358799,1.030305272,10.1761068
11.31999408,2.384635753,-13.28909331,0.9951772468,13.53797867
11.32992962,3.4351778,-16.30621215,2.11500456,16.79780478
11.33986563,3.982934437,-18.79732482,3.691092303,19.56597428
11.34980063,3.841247924,-20.5065408,4.254303131,21.29254556
11.35973662,3.447005256,-21.14214718,3.272045746,21.6697604
11.36967262,2.583879919,-20.08762289,2.224349831,20.37490517
11.37960763,2.535295989,-16.41495516,2.745903926,16.83503689
11.38954363,3.26003615,-13.05645365,3.694105958,13.95511507
11.39947862,3.128805335,-11.11533476,4.031908669,12.23095978
11.40941462,3.329082411,-9.583055527,3.642870023,10.77906512
11.41934963,4.147324228,-8.443501609,3.231301178,9.946573529
11.42928562,4.68557914,-7.554486848,2.936602678,9.362080896
11.43922062,4.979947271,-6.428275107,2.491389831,8.504682179
11.44915662,5.063042638,-5.298006567,2.130540612,7.631675939
11.45909163,5.062592987,-4.091526003,1.657622488,6.717004176
11.46902762,4.882176563,-3.4145038,1.277636793,6.093179791
11.47896262,4.571735605,-3.408112793,1.38077583,5.867072621
11.48889863,4.305906271,-3.7689778,1.965608785,6.050590084
11.49883463,4.021866076,-4.289992781,2.276434782,6.305679988
11.50876962,3.867581736,-4.599285931,2.39409801,6.468641654
11.51870562,3.563930273,-4.8508197,2.298517084,6.443231451
11.52864063,3.278675319,-5.37998453,2.063926207,6.629761442
11.53857662,3.179379657,-6.043382721,1.810177513,7.064536244
11.54851162,2.646579612,-6.251237204,1.217982037,6.896798567
11.55844762,1.721252181,-5.324269921,0.5617767987,5.623713402
11.56838263,0.543694869,-3.154768726,-0.1586720905,3.20520618
11.57831862,-1.195535453,0.2656629807,-1.147865443,1.678534156
11.58825362,-3.512204049,6.328352623,-2.467520035,7.646716899
11.59818963,-6.176759464,16.92777117,-4.735996464,18.63146417
11.60812462,-12.95249717,31.68659021,-10.21425076,35.72307519
11.61806062,-25.45768469,37.53222477,-13.93027559,47.44274638
11.62799562,-18.3857896,27.1933067,-7.582697909,33.68991683
11.63793163,-2.006403639,17.76326345,-0.8548424631,17.89664604
11.64786762,-3.236186526,14.3847937,-1.789368735,14.85250933
11.65780262,-12.12462265,14.92896365,-6.741606928,20.37963921
11.66773862,-17.07779436,16.59403432,-8.424926759,25.25851195
11.67767363,-18.16369364,15.69763044,-6.440860069,24.85598613
11.68760962,-15.08903001,13.83050221,-3.509171098,20.76718325
11.69754462,-10.10327996,13.55624558,-1.3354526,16.95970206
11.70748063,-5.890494404,14.31078666,0.3263108861,15.47911554
11.71741562,-2.009779821,12.71773614,1.823180552,13.00399996
11.72735162,0.7484020883,8.596550725,1.864424472,8.828186034
11.73728662,1.630620923,3.087167897,0.4990551782,3.526838001
11.74722263,1.401942751,-1.460091264,-1.149728512,2.327914437
11.75715762,1.392367058,-4.98829768,-2.123814998,5.597534271
11.76709362,1.72169423,-8.050952879,-1.428859531,8.356058451
11.77702863,1.578795296,-10.53831281,-0.4949948716,10.66741072
11.78696463,2.066660073,-12.51293859,-0.5416157453,12.69401684
11.79690062,3.014816789,-14.22171485,-1.096666199,14.57905931
11.80683562,4.093059435,-16.08237372,-0.8971964774,16.61929125
11.81677163,4.876237254,-17.79648031,-0.0486989741,18.45250045
11.82670662,5.234855468,-18.70692102,1.101096196,19.45674738
11.83664262,5.482392665,-18.94949744,2.703073071,19.910969
11.84657762,5.671772286,-18.94546286,4.448744102,20.27044371
11.85651363,5.743429914,-18.25514526,5.402809721,19.88536317
11.86644862,3.84193848,-15.67424976,5.3255949,16.99425073
11.87638462,2.712316934,-13.32087644,4.253767526,14.24419006
11.88631963,2.610760446,-11.7351712,2.65582406,12.31193383
11.89625563,2.559218702,-10.25426677,1.225550673,10.63962226
11.90619162,2.595282282,-8.773969281,0.3868354154,9.15792928
11.91612662,2.375903814,-7.116643832,-0.01942795873,7.502793867
11.92606263,2.189867631,-5.626202595,-0.5750046623,6.064676928
11.93599762,1.896284488,-4.750346408,-1.011806436,5.213965681
11.94593362,1.766890284,-4.851911375,-0.9894035599,5.257553107
11.95586862,1.775544747,-5.890285074,-0.4996890163,6.17233396
11.96580463,1.735665275,-6.7157406,0.09145176843,6.937007221
11.97573962,1.930617,-7.307246105,0.5629045804,7.578917416
11.98567562,2.442379054,-7.705115801,0.7934288648,8.121795018
11.99561063,3.511190434,-7.680565681,0.9394101584,8.49717829
12.00554663,4.140949593,-7.379639313,1.825596329,8.656751231
12.01548162,4.451391428,-6.987357216,2.547657588,8.667675911
12.02541762,4.591373186,-6.347133295,1.261044149,7.934547318
12.03535263,4.07881094,-4.962618463,-1.337540933,6.561501081
12.04528862,2.689865088,-3.037937849,-3.346172945,5.259402433
12.05522462,1.108133905,-0.5364744347,-4.518948696,4.683659135
12.06515962,-0.5096725523,4.607027645,-5.245344204,6.999864688
12.07509563,-3.752382525,15.46647246,-6.610569071,17.23344912
12.08503062,-12.8247589,30.27680547,-12.04345278,35.01719784
12.09496662,-31.48487998,39.54041591,-16.94509414,53.30927098
12.10490163,-33.92702105,34.792982,-9.16155314,49.45228417
12.11483763,-14.52742366,24.16613065,2.948580407,28.35034453
12.12477262,-12.93316979,18.5556746,7.655164207,23.87847315
12.13470862,-16.58089797,16.76041568,7.030648831,24.60218962
12.14464363,-13.76421584,16.28198831,2.196857393,21.43322102
12.15457962,-10.02643001,15.04944787,-3.282889992,18.37913346
12.16451462,-6.689988293,12.84975341,-6.977706971,16.07981656
12.17445062,-2.819358111,9.859205489,-8.257639089,13.16591495
12.18438663,-0.6019661736,5.146569529,-9.56211197,10.87582303
12.19432162,-0.01452974617,0.05420719743,-8.931259382,8.931435701
12.20425762,0.5736089319,-3.377937652,-5.467867012,6.452678486
12.21419263,0.8005963817,-5.449894425,-1.511217417,5.711924535
12.22412863,0.764776631,-6.563072723,1.705987293,6.824162916
12.23406362,1.356729155,-7.411108443,4.185064789,8.61858513
12.24399962,2.892864043,-8.049041424,5.812335842,10.34113041
12.25393463,4.834705066,-8.607078052,6.635565333,11.89482631
12.26387062,6.023884011,-9.352798607,6.148892219,12.71105408
12.27380562,6.530876784,-10.25715997,4.729513364,13.04722112
12.28374162,6.776848097,-11.57530013,3.22483445,13.79539055
12.29367663,6.606413455,-12.96879687,2.006123849,14.69213817
12.30361262,6.498391408,-13.77954139,1.321843936,15.29222427
12.31354862,6.007874334,-13.74122809,1.25368499,15.04950596
12.32348363,5.088091525,-13.26838131,1.600954928,14.30040819
12.33341925,3.928749167,-12.40767701,2.214575772,13.20188868
12.34335425,3.021182945,-10.94828215,2.985637429,11.74335809
12.35329025,2.697790697,-9.738652275,3.576560551,10.71966455
12.36322525,2.859236999,-9.163956345,3.448946239,10.20041971
12.37316125,2.790938304,-8.919681895,2.621517277,9.706823093
12.38309625,2.602220003,-8.770173853,1.890089217,9.341302672
12.39303225,2.853765759,-8.796185192,1.566816398,9.379326552
12.40296725,3.267705065,-9.046164771,1.611632967,9.752351218
12.41290325,3.525571369,-9.40725665,1.826766064,10.21093558
12.42283825,3.760818595,-9.664332994,1.611905155,10.49482382
12.43277425,3.972778701,-9.560291147,0.7730466405,10.3817021
12.44271025,4.024942004,-9.39667202,-0.1774720582,10.22394736
12.45264525,3.809761837,-9.307267508,-0.4700904107,10.06779513
12.46258125,3.544463138,-9.522217003,-0.244193759,10.16343771
12.47251625,3.025703135,-9.798795565,-0.4362253842,10.26457825
12.48245225,2.120383998,-9.552448862,-1.801637655,9.949432436
12.49238725,0.6297685146,-8.040271186,-4.125055107,9.058622895
12.50232325,-1.088988074,-3.982238034,-4.542681375,6.13840931
12.51225825,-2.668297341,0.2754857183,-3.241449605,4.207457501
12.52219425,-5.084689615,4.503282251,-2.438993517,7.216807389
12.53212925,-10.13803815,11.20141747,-2.92242932,15.38805264
12.54206525,-16.52301872,22.04623899,-4.850380282,27.97450607
12.55200025,-23.0099069,35.75630844,-8.404753865,43.34292671
12.56193625,-25.00830512,41.84289506,-8.992119541,49.56915781
12.57187225,-13.59983657,33.24425571,-4.689000053,36.22323583
12.58180725,-8.352658682,24.79391111,-0.001000458598,26.16304524
12.59174325,-13.33487233,19.67981702,0.1432734481,23.77255866
12.60167825,-16.36716236,14.55373262,-3.596485231,22.19526623
12.61161425,-14.75083057,10.20584948,-7.050589006,19.27322421
12.62154925,-10.66862269,6.721802993,-7.745729392,14.79859687
12.63148525,-5.431215495,5.544087807,-4.688646297,9.067437094
12.64142025,-1.379705497,5.791130329,-0.07308113247,5.9536643
12.65135625,0.4708043557,4.83324297,4.013972043,6.30030681
12.66129125,1.108819783,3.021194347,5.619762472,6.476019367
12.67122725,1.681345226,0.4736548734,4.147787912,4.500601657
12.68116225,2.33093434,-2.033908356,2.036196664,3.703530067
12.69109825,3.340770703,-4.301629325,1.115493211,5.559594305
12.70103425,4.528634024,-6.40446466,0.9316403782,7.898964964
12.71096925,5.557211298,-8.80654178,0.4541580637,10.42324494
12.72090525,6.614670893,-11.49182528,-0.02456298351,13.2595823
12.73084025,7.927486582,-13.91912027,0.1779100147,16.01931973
12.74077625,8.539779523,-15.90314487,1.263868647,18.09517104
12.75071125,7.991270349,-17.42876646,2.426361777,19.32639474
12.76064725,6.54010486,-18.18252518,3.318330843,19.60582855
12.77058225,4.338120629,-17.21668444,4.197909952,18.24434054
12.78051825,2.815178229,-14.01341364,5.169677725,15.19955783
12.79045325,2.91585588,-11.83123744,5.479386027,13.36054139
12.80038925,3.390833394,-10.6321653,5.070173902,12.25754272
12.81032425,3.850887351,-9.486270075,4.116236336,11.03458449
12.82026025,4.072140436,-7.97526535,3.137957689,9.488622851
12.83019625,4.311430136,-6.46769645,2.376430356,8.12815775
12.84013125,4.666228364,-5.267767106,1.879482222,7.283921393
12.85006725,4.855802405,-4.152721792,1.679349279,6.606370356
12.86000225,4.812530378,-3.201647024,1.73727589,6.03565405
12.86993825,4.936565609,-2.737636548,2.122318549,6.030635945
12.87987325,5.276884085,-3.28764027,2.612756978,6.74392936
12.88980925,5.255680912,-4.695098991,2.769481069,7.572064565
12.89974425,5.249251898,-6.003426942,2.138660055,8.256491226
12.90968025,5.555132613,-7.034970508,1.304149238,9.058206977
12.91961525,5.458813183,-7.757422069,0.6498805976,9.507816958
12.92955125,5.05377714,-8.196221105,-0.0415549922,9.629144853
12.93948625,4.430375074,-8.252499386,-1.38602049,9.468527985
12.94942225,3.092723044,-7.844381275,-4.196241449,9.418476295
12.95935825,1.712724601,-4.802579586,-5.476429675,7.482611725
12.96929325,-1.003957572,-0.2559513402,-4.483820379,4.601965567
12.97922925,-4.771637875,6.620951387,-2.770592917,8.618683797
12.98916425,-11.4760378,18.69456703,-1.224197627,21.97009194
12.99910025,-22.28902473,30.58039992,-2.599801595,37.93046864
13.00903525,-32.92830492,33.02267665,-5.61260548,46.9709674
13.01897125,-18.71666015,22.90951255,-5.699174092,30.12705956
13.02890625,-8.97670745,16.87999007,-4.610319627,19.6664788
13.03884225,-15.09107654,16.06360533,-3.793258655,22.36445435
13.04877725,-18.76320749,16.56913805,-1.647907923,25.08604974
13.05871325,-17.65110683,16.18338554,-0.9174430463,23.96466653
13.06864825,-12.26174922,15.1829936,-1.489827279,19.57277124
13.07858425,-6.767598971,14.40038238,-2.233970548,16.06742147
13.08852025,-3.249501806,13.43230566,-2.920060613,14.12490181
13.09845525,-1.162394604,11.59810194,-3.380581763,12.13653422
13.10839125,0.1407837036,8.518996764,-3.413282024,9.178432333
13.11832625,0.6098043662,4.774250411,-3.6228781,6.024165841
13.12826225,0.7528427562,1.008061733,-4.068083054,4.258199197
13.13819725,1.256093312,-2.433732192,-3.819567617,4.699991444
13.14813325,2.191485848,-5.245862267,-1.853731376,5.979799425
13.15806825,3.622518497,-7.663975961,1.616577519,8.629744531
13.16800425,4.811723462,-9.748154,3.855498465,11.53447257
13.17793925,5.315483894,-11.42931504,3.123735799,12.98619793
13.18787525,5.850611715,-12.83075814,1.689836114,14.20258984
13.19781025,6.847643845,-14.14331305,1.186179177,15.75850727
13.20774625,7.036286716,-15.28516434,1.818781106,16.92493853
13.21768225,6.798880405,-16.22356761,2.786240066,17.80988642
13.22761725,6.268620976,-16.8350741,3.931221077,18.38939444
13.23755325,5.231851754,-17.01743472,4.667366525,18.40515329
13.24748825,3.900939225,-16.2347814,5.177035276,17.48105111
13.25742425,2.718615848,-15.0157644,5.761320055,16.31124954
13.26735925,2.242100224,-13.68009078,5.294288907,14.83918435
13.27729525,2.438695309,-12.28067081,4.212189145,13.21002073
13.28723025,2.579990351,-10.6995299,3.273784708,11.48276781
13.29716625,2.846680395,-8.917852886,2.531379232,9.697400176
13.30710125,3.253080594,-6.850696092,1.210023684,7.679760908
13.31703725,3.465793236,-4.886030463,0.3532560253,6.000817133
13.32697325,3.475569196,-3.577683216,0.3268339196,4.998621695
13.33690812,3.102072449,-2.966962007,0.8251263285,4.371104035
13.34684413,2.782570938,-3.528302895,1.940397637,4.894564877
13.35677912,2.971342448,-4.569756907,2.734336087,6.098208587
13.36671512,3.380538493,-5.4648364,2.649283657,6.950624525
13.37665013,3.918183833,-6.062156961,1.836291178,7.448078736
13.38658613,4.361943939,-6.173755749,1.10028548,7.638877085
13.39652112,4.479208095,-5.707983508,1.408395445,7.3910729
13.40645712,4.286316052,-5.462446643,1.993371657,7.223874251
13.41639213,3.364187047,-5.384043083,1.818968802,6.604114014
13.42632813,2.120693024,-3.975706694,0.4453213128,4.527901687
13.43626412,0.6265393898,-0.8630303192,-1.216193959,1.617560102
13.44619912,-1.142250654,3.80433182,-2.104502083,4.495175878
13.45613513,-5.638989871,12.10530813,-1.816864389,13.4773027
13.46607012,-12.48410713,26.12415501,-3.303067856,29.1416311
13.47600612,-23.78762167,41.12743911,-8.722850583,48.30533423
13.48594112,-30.67553646,37.47472326,-9.844465828,49.41919594
13.49587713,-9.439663088,24.00497671,-3.274852409,26.00136158
13.50581212,-1.71019188,21.00548138,-3.929008199,21.43809949
13.51574812,-8.138389803,19.43559753,-9.956525377,23.30468274
13.52568313,-12.44216973,18.91640688,-12.24445666,25.74033325
13.53561913,-10.91770121,17.48030967,-8.693494052,22.36815291
13.54555412,-8.348987215,14.8069346,-2.972730577,17.25653577
13.55549012,-5.921568847,12.75437948,0.5264452904,14.0718271
13.56542513,-1.966480312,12.69463496,0.75118624,12.86798673
13.57536112,0.4027912974,10.30109712,0.5957654938,10.32616963
13.58529712,1.428181254,5.439995089,-0.3833396575,5.637392798
13.59523212,0.8399458042,0.1327247787,-2.061475932,2.229979336
13.60516813,0.02209662795,-4.427705235,-2.763766,5.219527221
13.61510312,0.1472723588,-7.97477243,-1.788110999,8.174107009
13.62503912,0.1430255261,-10.42305717,1.175111568,10.49006503
13.63497413,0.8340737379,-12.20994289,3.670815328,12.77706028
13.64491013,2.227899676,-13.59898171,3.63494266,14.25161916
13.65484512,3.246215671,-15.18790526,2.679480726,15.76039338
13.66478112,4.356275064,-16.98650763,2.125487302,17.6645484
13.67471613,5.584279228,-18.38795424,1.985287881,19.31948249
13.68465212,6.018285302,-19.17410771,2.146108239,20.21068888
13.69458712,5.980229284,-19.11053444,2.441900167,20.17271785
13.70452312,5.629420903,-17.95722027,3.366375368,19.11765212
13.71445913,5.207695152,-15.18142771,3.870206552,16.50982541
13.72439412,5.024382017,-12.44735621,3.179655061,13.79461118
13.73433012,4.896456926,-10.79116045,1.873015347,11.9971922
13.74426513,5.49594768,-9.186097997,0.6427446556,10.72394321
13.75420113,5.414896501,-7.667771389,0.01564963415,9.387015878
13.76413612,4.935437096,-6.560228637,0.01779351577,8.209473535
13.77407212,4.050023343,-5.914678488,0.318981986,7.175504178
13.78400713,3.062212565,-5.744771265,0.4715908062,6.527016207
13.79394312,2.082967958,-5.969845798,0.8393958735,6.378275613
13.80387812,1.043333307,-6.259459559,1.391057574,6.496492864
13.81381412,0.5327380639,-6.720365748,1.82006574,6.982819268
13.82375013,0.7668351433,-7.154933154,1.893283989,7.440808346
13.83368512,1.064655471,-7.691564294,1.83865053,7.979617054
13.84362112,1.762833193,-8.143385664,2.123767197,8.598412531
13.85355613,2.742856942,-8.47351946,2.220528968,9.179027462
13.86349213,3.334023016,-8.625783879,1.282152013,9.336153961
13.87342712,3.112567909,-8.137043774,-1.334982191,8.813724401
13.88336312,1.92109247,-7.378793805,-3.352926479,8.329424366
13.89329813,0.6096997011,-5.532317362,-4.291762733,7.028335257
13.90323412,-0.268314693,-2.15385463,-4.811853562,5.278732542
13.91316912,-2.162064998,2.802434222,-5.342230813,6.408400166
13.92310512,-6.061690353,12.53195607,-7.200319827,15.67286248
13.93304113,-13.62311668,28.30498168,-10.40141546,33.09003988
13.94297612,-27.91656517,37.65949527,-12.23709034,48.44913389
13.95291212,-28.27169698,30.36802671,-4.407152272,41.72443993
13.96284713,-9.395608996,22.952665,4.603814892,25.22493628
13.97278313,-12.48663079,22.43854038,0.7267203203,25.68914489
13.98271812,-16.12787675,21.20339092,-3.074254613,26.81684613
13.99265412,-16.03358923,19.36312246,-3.71781057,25.41315821
14.00258913,-13.02908868,16.29560296,-3.147938301,21.10007923
14.01252512,-8.678455598,13.13602256,-1.510017715,15.81615737
14.02246012,-6.033848251,10.99604221,-0.5251429693,12.5537263
14.03239612,-4.0296648,9.371644768,-1.016447517,10.2517847
14.04233113,-1.877700283,7.632944203,-2.066394171,8.127581462
14.05226712,0.1761204743,4.901592243,-2.200155222,5.375621633
14.06220312,1.52201737,1.344645592,-1.777295989,2.698775588
14.07213813,2.00929421,-2.615226842,-1.907673695,3.809972911
14.08207413,2.675521576,-5.787552418,-2.175234097,6.736900034
14.09200912,3.633682878,-8.166617821,-1.636146834,9.087038811
14.10194512,4.294805917,-10.11353715,-0.4370162201,10.99636189
14.11188013,4.749888572,-11.90417444,0.8013421941,12.8418441
14.12181612,4.619617869,-13.6599822,1.590328052,14.50741625
14.13175112,4.626469344,-15.34496381,1.731741793,16.12051682
14.14168712,5.178333943,-16.83064892,1.994676902,17.72186845
14.15162213,5.309492837,-18.09047714,2.281394098,18.99107255
14.16155812,4.343876628,-18.99156816,2.834023805,19.68706723
14.17149412,3.588799358,-19.48586487,4.128370478,20.23911691
14.18142913,3.111247023,-18.12135863,5.219638674,19.11303546
14.19136513,2.643087655,-15.02732902,5.829686285,16.33376173
14.20130012,3.435290651,-12.6877832,5.157548261,14.12024675
14.21123612,4.227693037,-10.74445757,3.531535821,12.07429096
14.22117113,4.672674919,-8.707957724,1.921427954,10.06748747
14.23110713,4.977558099,-6.783060179,1.109979286,8.486344563
14.24104212,5.022417938,-4.84030933,0.8738760272,7.029718035
14.25097812,4.790745406,-2.966933355,0.5977933082,5.66668262
14.26091313,4.230340072,-2.000015556,0.5079464543,4.70678754
14.27084912,3.669517831,-2.391265619,1.063885978,4.507257009
14.28078512,3.183195257,-3.897331785,1.74987167,5.327661584
14.29072013,2.877494345,-5.254153034,1.877330446,6.277775674
14.30065613,2.921909795,-6.40958799,2.009947636,7.325316686
14.31059112,3.307734519,-7.598659054,2.641177955,8.698077262
14.32052712,3.955915331,-8.520583699,3.426627124,9.999569297
14.33046171,4.595582889,-8.638932513,3.60287536,10.42742768
14.34039771,4.34724667,-8.054085233,2.502818799,9.488463758
14.35033271,3.78835518,-7.102794117,0.4132820794,8.0605286
14.36026871,2.550456942,-5.92852294,-1.163365242,6.557868065
14.37020371,1.040564066,-4.241549184,-1.99666744,4.802103073
14.38013971,-0.2383167225,-1.795619116,-2.995729431,3.500776727
14.39007571,-2.431395352,3.623691448,-4.179238331,6.042255878
14.40001071,-4.708107292,15.23327848,-5.92620335,17.00996572
14.40994671,-10.8256064,32.5826456,-10.74976801,35.9774938
14.41988171,-30.64544902,41.66505083,-18.43346897,54.90822147
14.42981771,-33.78965592,30.08335852,-13.93160876,47.33750131
14.43975271,-11.67555649,17.039667,-3.232466235,20.90736016
14.44968871,-9.549621148,12.82550384,-1.449622993,16.0558469
14.45962371,-15.27762611,10.77524082,-1.76861872,18.778703
14.46955971,-18.00186142,11.74549387,-1.460660198,21.54430712
14.47949471,-18.45664499,12.3379665,-0.9495273033,22.22104327
14.48943071,-15.39825767,14.2274346,1.316367288,21.00616713
14.49936571,-11.11143467,16.65037693,1.257963251,20.05695649
14.50930171,-8.447315748,16.45908176,-2.314452793,18.64444173
14.51923771,-5.332201084,13.59749535,-4.516959766,15.28813833
14.52917271,-1.75438572,8.915751396,-5.242010121,10.49033662
14.53910871,0.5809553736,3.10208239,-5.7751265,6.58122408
14.54904371,0.8527026746,-2.246846994,-5.19501488,5.723949935
14.55897971,1.332428712,-5.93506539,-3.074148194,6.815479042
14.56891471,2.879591449,-8.350213376,1.111401037,8.902433521
14.57885071,4.25277233,-10.27370174,4.046453033,11.83253152
14.58878571,5.734042209,-11.82316594,4.795379909,13.98792913
14.59872171,6.838557272,-13.13250488,3.210020529,15.15033933
14.60865671,8.035048453,-14.18658946,1.966629124,16.42220918
14.61859271,9.37624945,-15.07360506,1.946940379,17.85828099
14.62852871,9.688229395,-16.1581817,2.4088672,18.99345324
14.63846371,8.560837101,-16.80372834,3.207876062,19.12965465
14.64839971,6.198645008,-15.92484271,4.261214248,17.61197781
14.65833471,4.210624723,-14.48715973,4.888411449,15.85886894
14.66827071,2.659006992,-12.6567567,4.850742224,13.81280234
14.67820571,1.662956902,-11.1910983,4.459126418,12.16099977
14.68814171,2.168011324,-9.770925981,3.889077855,10.73760654
14.69807671,3.332032039,-8.153383234,3.125236194,9.34597223
14.70801271,4.354459211,-6.53033884,2.730397987,8.310337752
14.71794771,4.91339017,-5.083466377,2.549146581,7.515396308
14.72788371,4.78734028,-4.465091747,2.371576582,6.962761431
14.73781971,4.494150655,-4.869961145,2.241623383,6.99562628
14.74775471,4.341585104,-6.017897632,2.199800004,7.739739865
14.75769071,4.316615154,-7.108075322,2.14644153,8.588661852
14.76762571,4.279802839,-8.101816639,2.039320247,9.386957561
14.77756171,4.323756651,-8.849269724,1.882602296,10.02739436
14.78749671,4.436546225,-9.397215811,1.698246311,10.52970313
14.79743271,4.655308397,-9.708762478,1.768795599,10.91148949
14.80736771,4.981689742,-9.964714987,2.303917865,11.37632696
14.81730371,5.055510255,-10.11770622,3.077308029,11.72160346
14.82723871,4.435200196,-9.721192489,2.863944884,11.0623128
14.83717471,3.49149555,-8.420022699,0.7058290958,9.142511588
14.84711071,2.556333394,-7.02979046,-1.180206685,7.57269319
14.85704571,1.676943442,-5.215400612,-2.253786177,5.923858117
14.86698171,0.6899173602,-2.099159775,-2.383549633,3.250194852
14.87691671,-1.074944524,2.406815119,-2.700637414,3.773818648
14.88685271,-4.830304744,10.66257667,-4.391757138,12.5023964
14.89678771,-13.02318066,27.08937361,-9.554981875,31.53942098
14.90672371,-27.68523763,47.71840656,-14.90680271,57.14657885
14.91665871,-35.82230245,47.17624337,-12.9331768,60.63086964
14.92659471,-23.1248234,27.51572685,-5.126967323,36.30645225
14.93652971,-12.14003942,18.09712309,0.08922500253,21.79207155
14.94646571,-11.34328028,13.43004395,2.531930624,17.76082095
14.95640171,-14.76625435,11.3571335,1.702142018,18.70625661
14.96633671,-17.5480672,9.509012235,-1.384410167,20.00681303
14.97627271,-18.99820124,8.332226756,-5.697745618,21.51329724
14.98620771,-17.36530897,9.046875792,-9.437236494,21.73617606
14.99614371,-13.52591022,9.295739138,-10.56543103,19.51894839
15.00607871,-9.285711163,6.689271424,-8.404976059,14.19909879
15.01601471,-5.417654632,2.055581646,-5.137674744,7.744165507
15.02594971,-2.106280806,-2.165811601,-2.453443741,3.89185623
15.03588571,0.6352146113,-5.348227133,0.1526915583,5.387981605
15.04582071,3.247144209,-7.333217098,2.926344323,8.53718394
15.05575671,5.321224106,-8.973290337,2.784261368,10.7975681
15.06569271,6.286814003,-10.91270184,0.9810818025,12.63224498
15.07562771,7.27360298,-12.88943028,-0.6481755495,14.81427841
15.08556371,8.194348242,-14.97671202,-0.7457468677,17.08816504
15.09549871,8.574260554,-16.92111003,0.520823485,18.9766479
15.10543471,8.102635834,-18.14931534,1.953164448,19.97161
15.11536971,6.811318603,-18.26528316,3.679915058,19.8382561
15.12530571,5.361949378,-16.88543383,4.914695853,18.38539126
15.13524071,4.926982607,-14.75828343,4.150739586,16.10312785
15.14517671,5.603120711,-12.53523753,2.233689297,13.91102115
15.15511171,5.904913638,-9.820881668,0.3025983801,11.46338901
15.16504771,5.577145625,-7.254608885,-0.6434746805,9.173219885
15.17498371,5.263102198,-5.237946891,-0.08674724489,7.425891021
15.18491871,5.295513314,-3.451596197,1.492822369,6.494959291
15.19485471,5.142169499,-2.53783485,2.794572056,6.379039572
15.20478971,5.325103149,-2.156098207,2.767066169,6.376687087
15.21472571,5.660914006,-2.146793532,2.117916181,6.4140657
15.22466071,6.048018394,-3.04315415,1.935110585,7.041588361
15.23459671,5.425602168,-4.622417516,2.348550831,7.504638138
15.24453171,4.474788769,-6.273661861,3.21576571,8.350072861
15.25446771,4.071239088,-8.253311564,3.636479309,9.895257513
15.26440271,4.209728052,-10.22260293,3.356128415,11.55365824
15.27433871,4.893197688,-11.80199668,3.266018436,13.1870158
15.28427471,5.529728215,-12.69671423,3.691208078,14.33211302
15.29420971,5.718442422,-13.04376987,3.893315333,14.76476957
15.30414571,5.854167992,-12.75346731,2.974885861,14.34476062
15.31408071,5.676902633,-11.92357901,1.518247963,13.29300706
15.32401671,4.539474177,-10.50746056,-0.4806110135,11.45620095
15.3339525,3.490628408,-8.033425266,-2.323637892,9.061992123
15.3438885,2.400198703,-5.792318484,-3.155241766,7.019078132
15.3538235,0.6391652825,-2.17137932,-3.010357995,3.766387615
15.3637595,-1.765682541,2.952856768,-2.999958137,4.564728552
15.3736945,-4.249225409,11.27610396,-3.040162715,12.42775226
15.3836305,-11.06749518,26.60753497,-4.998730867,29.2478662
15.3935665,-26.57457772,47.32066492,-10.18502638,55.21945556
15.4035015,-39.06602662,49.21340863,-13.10105855,64.1852924
15.4134375,-17.38474511,26.55710858,-6.781556275,32.45764755
15.4233725,-5.106072298,16.37425971,-1.7259741,17.23854234
15.4333085,-9.889603994,13.5005146,-2.056273956,16.86109202
15.4432435,-15.89110779,13.55730743,-3.961174901,21.26073372
15.4531795,-18.03290312,11.76735778,-5.770544622,22.2924985
15.4631145,-16.37691084,10.5254045,-5.556578629,20.24507136
15.4730505,-11.21021402,12.38001617,-3.05679015,16.97874156
15.4829855,-7.44570174,13.82633666,-1.90546257,15.8188763
15.4929215,-4.754257903,12.93048124,-2.461518453,13.99497718
15.5028575,-1.451689984,9.568491867,-2.911839135,10.10654479
15.5127925,0.1183265948,3.859747637,-1.903492059,4.305221832
15.5227285,0.4478821009,-0.8137248427,-0.3841164601,1.005132803
15.5326635,0.8700879085,-4.106337,0.8005566207,4.273165973
15.5425995,2.043577605,-6.860226468,0.9794600773,7.224836238
15.5525345,4.031642329,-8.927120723,0.9026396504,9.836787209
15.5624705,6.379443254,-10.54356829,0.844300518,12.35220514
15.5724055,7.928905116,-12.28075267,0.6524086413,14.63250011
15.5823415,8.530888832,-14.20944038,1.006685883,16.60414637
15.5922765,8.017278764,-15.85442353,2.21658356,17.9039869
15.6022125,7.131808001,-17.08489872,3.302582245,18.80594319
15.6121485,5.760990272,-17.73419811,3.900767609,19.05011232
15.6220835,3.607387364,-17.01495667,4.345788667,17.92785188
15.6320195,2.109766916,-15.16854981,4.553306351,15.97712798
15.6419545,1.688009298,-13.41412549,4.557829757,14.26751381
15.6518905,1.91748503,-11.9272417,3.919048344,12.70018832
15.6618255,2.58160009,-10.39216516,2.834255354,11.07676664
15.6717615,3.412855762,-9.065926605,1.796694711,9.852244493
15.6816965,4.081700926,-7.817948937,0.821704684,8.857528245
15.6916325,4.800721048,-6.616591119,0.08251488402,8.175145829
15.7015685,5.500007987,-5.758297629,0.1534345932,7.964397128
15.7115035,5.780054533,-5.419209407,1.073942896,7.995637207
15.7214395,5.99836033,-5.611185191,1.849402975,8.419383425
15.7313745,6.274407381,-6.36307339,1.985590767,9.154204588
15.7413105,5.905045785,-7.18878327,2.01187751,9.518183742
15.7512455,5.407084036,-7.271522541,2.323472123,9.354684417
15.7611815,5.299782951,-7.203635783,2.654310801,9.32874234
15.7711165,5.276323922,-7.397397891,2.772679496,9.499939014
15.7810525,5.116084485,-7.568946428,2.902076916,9.585683122
15.7909875,4.731539716,-7.409409242,2.481113642,9.134699683
15.8009235,4.267968951,-6.997456527,0.8278593171,8.238040292
15.8108595,3.481033712,-6.659871624,-1.27890637,7.622800486
15.8207945,1.893022034,-5.75184698,-1.829772702,6.325768274
15.8307305,-0.2832101825,-4.056256768,-0.9824526823,4.183137608
15.8406655,-2.337360138,-0.9967216426,-0.3417485587,2.563883485
15.8506015,-4.503453575,4.697042606,-0.8766284578,6.565956198
15.8605365,-7.435459757,14.22350059,-3.220702515,16.36969626
15.8704725,-15.11224814,29.8569824,-8.674022824,34.56961258
15.8804075,-32.77765726,47.84836912,-17.2185345,60.50057167
15.8903435,-35.458339,45.20009498,-17.408638,60.0283522
15.9002785,-11.04191478,28.53623672,-6.766401461,31.33727615
15.9102145,-3.074482362,21.81340754,0.3003162119,22.0310549
15.9201505,-4.709611196,15.61249147,2.819865357,16.54937969
15.9300855,-9.680146789,11.6524062,1.683586756,15.24199057
15.9400215,-11.33060819,10.41732924,-0.7723563766,15.41103387
15.9499565,-9.333983436,10.45779899,-2.967646423,14.32814474
15.9598925,-6.070910243,9.661107085,-3.79532857,12.02486841
15.9698275,-2.598308508,7.459412876,-3.632865145,8.694352001
15.9797635,-0.7073979038,3.756360678,-3.708577524,5.325805534
15.9896985,-0.1847743535,-0.57182787,-2.983016707,3.042945505
15.9996345,0.04564307302,-4.401978655,-1.341034059,4.601942168
16.0095695,0.5880547705,-7.201071194,0.6024620175,7.250116912
16.0195055,1.234299277,-9.221618078,1.710576188,9.459799447
16.0294415,1.796647349,-10.97963024,1.565277557,11.23522656
16.0393765,2.925882393,-12.55130451,0.879164249,12.91777699
16.0493125,4.071725577,-13.9491083,0.4614983658,14.538554
16.0592475,4.437513647,-15.22198517,0.4883043413,15.86312709
16.0691835,4.06292464,-16.16012181,1.29016226,16.71291154
16.0791185,3.505731474,-16.60456633,2.298858415,17.12561024
16.0890545,3.061431669,-16.64321526,3.007969115,17.1876949
16.0989895,2.741602129,-16.45831226,3.256075246,16.99983679
16.1089255,2.793333908,-15.72510183,3.335600302,16.31587482
16.1188615,2.808763248,-14.38147716,3.49688639,15.06466895
16.1287965,3.106312265,-12.38088507,3.306362177,13.18588343
16.1387325,3.87066088,-10.33927359,2.729092011,11.37235847
16.1486675,4.676803346,-8.778041282,1.932603883,10.13219897
16.1586035,5.491525431,-7.619491514,1.413737169,9.498007964
16.1685385,5.950614306,-6.802225598,0.9905687638,9.091826559
16.1784745,6.106119252,-6.08144751,0.3830759481,8.626438623
16.1884095,5.949748918,-5.497660915,0.2393452477,8.104386088
16.1983455,5.78216187,-5.454265219,0.945626041,8.004786917
16.2082805,5.709111435,-5.947696545,1.918472917,8.464607841
16.2182165,5.697253282,-6.608929512,2.89881914,9.194552554
16.2281525,5.760704927,-7.175311285,3.814757406,9.961083644
16.2380875,5.946648724,-7.511041451,3.963944435,10.36779775
16.2480235,5.829927775,-7.447180501,2.775871783,9.856673852
16.2579585,4.556248962,-7.307529695,0.2405947977,8.614945194
16.2678945,2.472881347,-6.487954713,-2.330207531,7.323835447
16.2778295,-0.03812209189,-3.597565504,-2.941154151,4.646968753
16.2877655,-2.989652712,0.243607868,-2.298508606,3.778956197
16.2977005,-7.004581944,6.453841472,-3.128293996,10.02509158
16.3076365,-12.84302794,18.90720336,-5.471017492,23.50229219
16.3175715,-26.98503589,39.48540998,-13.23005865,49.62181189
16.3275075,-47.76513751,49.19673237,-15.46650988,70.29252994
16.33744358,-28.79081981,33.25991456,-3.59184488,44.13654462
16.34737858,-5.31871682,23.55346875,5.671626105,24.80366871
16.35731458,-2.621077274,17.46989227,5.780622883,18.58716715
16.36724958,-8.591511009,11.98344046,-2.615810394,14.97529201
16.37718558,-11.4632324,7.839996448,-11.66893043,18.13932685
16.38712058,-10.7849624,4.431005403,-17.27712594,20.84342351
16.39705658,-8.088444057,3.656410128,-16.24518242,18.51210993
16.40699158,-3.019822298,5.158384413,-8.570047635,10.44863498
16.41692758,-0.1928429264,4.306826915,-1.070994145,4.442181326
16.42686358,-0.1286504388,1.507674735,4.192040809,4.45677464
16.43679858,0.2232654047,-1.327747723,6.792513372,6.924666012
16.44673458,0.9209165847,-3.299899542,7.682979412,8.412229014
16.45666958,2.316296713,-5.002158505,6.367471665,8.42208499
16.46660558,4.088584561,-6.937239561,4.071208975,9.023112487
16.47654058,5.844363381,-9.032659457,2.620598972,11.07307812
16.48647658,7.489725426,-10.99068616,1.902825476,13.43547223
16.49641158,8.738947383,-12.81731072,1.729860159,15.60913424
16.50634758,9.623458618,-14.56402489,1.78162322,17.54696436
16.51628358,9.807636555,-15.87860761,2.270550144,18.80093914
16.52621858,8.995644243,-16.0933735,3.72503539,18.80941718
16.53615458,7.492256101,-14.84375335,5.306682665,17.45370436
16.54608958,7.064108938,-13.04729574,5.094660287,15.68722808
16.55602558,7.245088449,-11.24771105,3.466739316,13.82101993
16.56596058,7.569053432,-9.585132458,1.48141986,12.30284272
16.57589658,7.018120587,-8.776812197,1.120352393,11.29343342
16.58583158,5.560109178,-8.057323421,2.365015129,10.07117527
16.59576758,4.373473479,-7.204430419,3.565464582,9.151154333
16.60570258,3.944263877,-6.475319465,4.112833549,8.625681394
16.61563858,3.827753427,-6.127099646,4.143426474,8.328326922
16.62557458,3.575802459,-6.01150604,4.045145888,8.080084985
16.63550958,2.88080153,-6.300087767,4.043624443,8.021285556
16.64544558,2.001361,-6.949549704,4.143543418,8.334904859
16.65538058,1.374174031,-7.445744424,3.874568282,8.505277401
16.66531658,0.9378103602,-7.835529175,3.114123268,8.483676648
16.67525158,1.039697801,-8.016210478,1.590607257,8.238363514
16.68518758,1.46950762,-8.157375128,-0.4100827754,8.298818561
16.69512258,0.7594875321,-7.71051512,-1.999130872,8.001586653
16.70505858,-1.178315696,-5.698964762,-2.924984553,6.513229758
16.71499458,-2.77795193,-2.384844207,-3.263555589,4.904619649
16.72492958,-4.441795855,3.064580103,-3.119976039,6.233414161
16.73486558,-6.922145559,11.62582943,-1.982525218,13.6750289
16.74480058,-12.48286285,22.84701283,-3.428031918,26.25946045
16.75473658,-19.46774903,34.68674744,-7.4416695,40.46655589
16.76467158,-10.68399736,33.86091711,-9.230239213,36.68660277
16.77460758,3.833564975,22.54906679,-6.110553195,23.67478603
16.78454258,3.211942216,17.2769014,-7.634400744,19.1596443
16.79447858,-6.076962696,16.98043588,-10.44117302,20.8394523
16.80441358,-14.284252,17.18455048,-9.311238352,24.20842395
16.81434958,-19.98485222,14.28402629,-7.672895304,25.73521027
16.82428558,-20.90701193,10.78314976,-5.830083311,24.23570378
16.83422058,-14.32249512,9.398140256,-3.179476428,17.42320227
16.84415658,-6.646430629,9.283241884,-2.568400293,11.70257664
16.85409158,-2.611037312,8.740531393,-3.51181901,9.774828778
16.86402758,0.4016218543,6.886963447,-4.350793884,8.156039054
16.87396258,1.926271349,3.478440179,-3.775179942,5.482887103
16.88389858,1.813368339,-0.5131463832,-2.141197747,2.852429094
16.89383358,1.507955109,-4.127276464,0.7945244868,4.465378907
16.90376958,2.164531646,-6.93599235,3.806408459,8.20255646
16.91370458,3.165424107,-9.365049108,5.174536761,11.15795166
16.92364058,3.913184171,-11.15740314,4.407308393,12.61843978
16.93357658,4.33136651,-12.39627728,2.674156251,13.400729
16.94351158,4.567897493,-13.23014169,1.584600997,14.08592549
16.95344758,4.698325777,-13.84139558,1.208399766,14.66692628
16.96338258,4.739358613,-14.33513096,1.623634085,15.18531156
16.97331858,4.536494729,-14.77411067,2.451929458,15.64819762
16.98325358,4.053557693,-15.07870617,3.528383295,16.00775432
16.99318958,3.576792393,-15.06205564,4.60741093,16.15200295
17.00312458,3.30255067,-14.35797135,5.5377389,15.73927363
17.01306058,3.187102075,-13.27018576,5.930268334,14.88030686
17.02299658,3.53991722,-12.02723143,5.504547181,13.69252897
17.03293158,4.443040435,-10.52832109,4.358344978,12.2303444
17.04286758,5.219471444,-9.087351388,2.665918109,10.81341559
17.05280258,5.523975139,-7.55985927,1.090809482,9.426326901
17.06273858,5.651753173,-6.284437695,-0.07331385165,8.452327845
17.07267358,5.240864067,-5.441104891,-0.5523645356,7.574786148
17.08260958,4.772532499,-5.023753442,-0.0193864435,6.929324709
17.09254458,4.485858718,-5.186808313,1.121369078,6.948624146
17.10248058,4.415226107,-5.299612797,1.604271907,7.081935168
17.11241658,4.253489783,-5.275578986,1.398889919,6.919595507
17.12235158,4.388527428,-5.256721131,1.244782165,6.960012405
17.13228758,4.408252425,-5.3126784,1.373153692,7.038664099
17.14222258,4.693562343,-5.291901489,1.743439733,7.285144538
17.15215858,4.738863062,-4.47130266,1.000741603,6.591726204
17.16209358,3.486085121,-2.92582509,-1.705716713,4.860320096
17.17202958,0.8541858208,-0.3984561718,-3.66308297,3.782403678
17.18196458,-2.915837169,3.96842808,-3.323120005,5.940846269
17.19190058,-8.092354674,12.42104141,-4.238003433,15.41846772
17.20183558,-14.85421285,26.34227019,-6.272052122,30.88529546
17.21177158,-29.18460405,39.02777414,-10.85320759,49.92695047
17.22170758,-32.26951551,34.15420409,-8.164875351,47.69168143
17.23164258,-9.676550751,24.43057214,-0.04163714558,26.27718066
17.24157858,-7.587962158,21.03423564,-1.475974933,22.40970194
17.25151358,-15.24271238,19.31712358,-8.053084774,25.89099687
17.26144958,-15.69044655,17.21448472,-10.56842831,25.57773004
17.27138458,-11.29955012,14.12853363,-10.31183378,20.82376554
17.28132058,-5.76230648,11.61888294,-9.872340674,16.29925542
17.29125558,-1.137333438,8.64368513,-8.81380753,12.39717803
17.30119158,2.247685484,5.419208238,-5.756506627,8.21932336
17.31112758,4.212357545,1.712158298,-1.699024575,4.854083501
17.32106258,4.205891986,-1.739701608,0.8969511867,4.639031204
17.33099858,1.499279888,-4.320365558,3.759560859,5.920109509
17.34093358,-0.1163873658,-6.382321254,5.505886778,8.429849335
17.35086958,0.7409129745,-8.909668538,5.881005542,10.70127897
17.36080458,2.659028627,-10.96690202,4.979499375,12.33445529
17.37074058,4.124061957,-12.49810537,3.935832192,13.73685917
17.38067558,5.227630064,-13.92888746,2.93137059,15.16360629
17.39061158,6.436555933,-15.17291417,2.285613595,16.63942926
17.40054758,7.470813192,-16.07547868,2.291606698,17.87415805
17.41048258,7.853083686,-16.41029961,2.508112576,18.36462592
17.42041858,7.000781254,-15.65043288,2.998329395,17.40508451
17.43035358,5.753804044,-14.13260563,3.320665052,15.6161333
17.44028958,4.625046424,-12.45295317,3.490060351,13.73490511
17.45022458,3.825399338,-11.27839957,3.80447917,12.50240132
17.46016058,3.499133768,-10.04373894,3.893626989,11.32611849
17.47009558,2.659309001,-8.336365415,3.750995858,9.520340468
17.48003158,2.279214548,-6.594006248,3.538233222,7.822712553
17.48996758,2.619364332,-4.869892733,3.111803093,6.345095998
17.49990258,3.961179579,-3.532636267,2.29071456,5.780816192
17.50983858,4.860687461,-3.259347348,1.366611388,6.009763258
17.51977358,4.679981015,-4.064422404,1.110879757,6.297285575
17.52970958,3.926437763,-5.393056566,1.70719869,6.885963984
17.53964458,3.339376726,-6.546245021,2.295599762,7.698995978
17.54958058,3.027559918,-7.554510237,2.630896211,8.553265976
17.55951558,2.682094431,-8.55339418,2.887560619,9.417653044
17.56945158,2.654913064,-9.40302385,2.8576372,10.17995635
17.57938658,3.185889654,-10.09382268,2.742466055,10.93417895
17.58932258,3.572003816,-10.50063803,2.607059159,11.39383025
17.59925858,3.322876761,-10.41970438,0.7813166499,10.96458868
17.60919358,2.241411714,-9.669931118,-2.669506837,10.27899611
17.61912958,-0.2743955049,-6.492368191,-5.450239411,8.481229113
17.62906458,-2.288166051,-1.601937699,-5.44771166,6.122047908
17.63900058,-4.723408286,4.484595135,-4.126963638,7.71064253
17.64893558,-9.203541411,15.10802177,-3.726909715,18.07892011
17.65887158,-15.35804637,31.64770856,-6.098485712,35.7020808
17.66880658,-25.34186304,48.22348437,-12.62990278,55.92163188
17.67874258,-18.30369118,42.22356284,-10.16138842,47.12863444
17.68867858,-1.277620713,26.00166286,-0.9099249887,26.04892991
17.69861358,-4.979429208,18.51528555,-2.123618093,19.29041907
17.70854958,-13.70595535,14.90017664,-7.440636882,21.569227
17.71848458,-17.91197685,11.7251783,-10.0915142,23.66764415
17.72842058,-18.3869263,6.720113733,-10.0635458,22.01167738
17.73835558,-14.35664871,2.683412978,-7.112501664,16.24505301
17.74829158,-7.659070147,3.025949303,-2.80367851,8.699329738
17.75822658,-2.429568974,4.333435255,-0.5234170175,4.9955412
17.76816258,0.7202360505,3.781934645,-0.7651432514,3.925202393
17.77809858,3.584455462,1.982083315,-1.131677426,4.249431611
17.78803358,5.079589673,-1.31707714,-1.034607799,5.348582685
17.79796958,4.379364257,-4.854107589,-0.3204779962,6.54552503
17.80790458,2.848719904,-7.5136382,1.138871841,8.115848271
17.81784058,2.373165855,-9.473604421,3.327672355,10.31767901
17.82777558,3.294358428,-10.97756734,4.727841937,12.39807532
17.83771158,4.546622106,-12.05011042,4.294606819,13.57647161
17.84764658,5.738752726,-12.93016081,3.097905431,14.48169049
17.85758258,6.204579347,-13.71148916,2.594473904,15.27196892
17.86751758,5.838536046,-14.05054346,2.968308328,15.5021653
17.87745358,5.077715056,-13.74588482,3.670289956,15.10640817
17.88738958,4.848575246,-13.20339886,3.906906016,14.59802514
17.89732458,4.753879881,-12.47792546,3.771591213,13.87526209
17.90726058,4.534309916,-11.53268329,3.726621155,12.94026489
17.91719558,4.503889192,-10.8779495,3.649328273,12.32608616
17.92713158,4.934468797,-10.52387253,3.480844262,12.13330755
17.93706658,5.772329192,-10.2179883,3.232879341,12.17286236
17.94700258,6.175449688,-9.696064664,2.893439409,11.85419084
17.95693758,5.626076295,-8.331946675,2.372061024,10.32960519
17.96687358,4.616689584,-6.840120233,1.838830624,8.454724453
17.97680958,3.609909853,-5.573762426,1.969204237,6.926473999
17.98674458,2.993338504,-4.698035463,2.36261397,6.050913764
17.99668058,2.410734216,-4.181777192,2.882768533,5.622210807
18.00661558,2.034044304,-3.921257422,3.208043293,5.459408189
18.01655158,1.937869886,-3.904115725,2.821846101,5.192328447
18.02648658,2.251465417,-4.452544792,2.30687948,5.496903181
18.03642258,2.5510326,-5.225808071,1.350788969,5.970047585
18.04635758,2.013969936,-5.423795378,-0.2895582122,5.792881422
18.05629358,0.9473775744,-5.027819011,-1.343099296,5.289650649
18.06622958,-0.1877236891,-3.088471241,-1.313551561,3.361445001
18.07616458,-1.582441912,0.9718119192,-0.7973713499,2.020975478
18.08610058,-3.841268097,6.61631513,-0.9765560576,7.712627842
18.09603558,-8.043638597,14.5380118,-2.849021913,16.85736737
18.10597158,-13.4454081,26.56060522,-7.235695481,30.63658006
18.11590658,-21.75740524,37.9559912,-12.88829942,45.6086638
18.12584258,-18.20180462,31.9817062,-13.52164176,39.2042092
18.13577758,-2.956070398,18.72856391,-7.021305565,20.21870891
18.14571358,-0.3352232122,14.88845882,-4.998700461,15.7087742
18.15564958,-8.441313581,14.27318672,-6.734003209,17.89766559
18.16558458,-15.06433137,14.26980002,-7.673734964,22.12345996
18.17552058,-19.14006989,12.72236246,-8.086038512,24.36359581
18.18545558,-18.64271509,10.84106059,-7.301275513,22.76813661
18.19539158,-12.74537359,10.80968677,-6.196692038,17.82394087
18.20532658,-6.444633277,14.21905086,-4.315978685,16.19698668
18.21526258,-0.9530186757,14.96109761,-0.322208772,14.99488262
18.22519758,2.276377771,7.684366372,1.601255329,8.172845338
18.23513358,3.411396005,0.1738254422,1.582153645,3.764445263
18.24506958,3.696594533,-5.376614195,2.045620476,6.837934957
18.25500458,4.078482327,-9.349933471,3.138683328,10.67270383
18.26494058,3.738646831,-11.80238377,3.293384867,12.81093777
18.27487558,3.690690307,-12.84152755,3.80681484,13.89308691
18.28481158,3.605972923,-13.86195673,3.692069957,14.79149301
18.29474658,3.926005946,-14.94846061,3.536296624,15.85482233
18.30468258,4.573789732,-15.83407405,3.938835322,16.94555626
18.31461758,4.876569376,-16.57687041,4.393141758,17.82900042
18.32455358,4.897623153,-16.74552867,4.582696503,18.03886222
18.33448913,4.089999295,-15.54718626,4.939539503,16.81791144
18.34442412,3.825082127,-13.41691345,5.639058284,15.04804964
18.35436012,4.34961567,-11.04584528,5.817850351,13.22033423
18.36429513,4.685246141,-9.122132381,4.299901181,11.11998115
18.37423112,5.470892361,-7.785137871,1.840430715,9.691554061
18.38416612,6.093240759,-6.867474092,-0.2154304281,9.183473941
18.39410213,5.816523618,-6.031375464,-1.108967279,8.452174005
18.40403713,4.891554035,-5.353321227,-0.934840267,7.31158501
18.41397312,3.300574311,-5.427325927,-0.0980890891,6.352895322
18.42390912,2.022391973,-6.486116933,1.372597914,6.931364021
18.43384413,1.193444489,-8.067681178,2.878862301,8.648678367
18.44378013,0.351992442,-9.344376862,3.50899919,9.987710095
18.45371512,0.6491412172,-10.1678379,3.762588255,10.8610949
18.46365112,1.878198173,-10.70862583,4.005927444,11.58661945
18.47358613,2.122715868,-11.31632227,4.113493115,12.22644258
18.48352212,3.176844889,-11.66876904,3.241034453,12.52025634
18.49345712,5.069657008,-11.48182771,-0.1787555221,12.5525194
18.50339312,5.638117467,-10.33817665,-3.288958525,12.22634505
18.51332913,3.927230353,-8.508900962,-3.820322493,10.12024692
18.52326412,1.95873129,-6.042044878,-2.483678816,6.819940984
18.53320012,0.2718361786,-2.899385735,-1.456980837,3.256244111
18.54313513,-2.283147385,3.736621063,-1.125174738,4.521185369
18.55307113,-5.53722493,13.8329405,0.8392976403,14.9236565
18.56300612,-9.855690143,22.94192016,-0.9869372043,24.98880497
18.57294212,-11.31705668,36.56248511,-5.209997785,38.62687104
18.58287713,-15.69145812,47.17201934,-10.82175893,50.87761525
18.59281312,-20.47535176,36.78217903,-14.69255137,44.58743982
18.60274912,-11.34174597,21.52354936,-9.252017752,26.02879581
18.61268412,-11.98022917,18.71041883,-6.594980394,23.17540572
18.62262013,-16.32241946,15.57165919,-6.226023425,23.40216475
18.63255512,-16.73890377,12.42987772,-6.72803671,21.90797201
18.64249112,-10.65068928,11.45022234,-5.971411682,16.73925122
18.65242613,-4.481369226,11.90391131,-4.381070182,13.45286403
18.66236213,-0.5036484584,11.9333883,-4.559903764,12.78484026
18.67229712,3.255668572,9.451582053,-5.165860662,11.25246184
18.68223312,5.53886215,4.094143801,-4.25823743,8.097752367
18.69216813,4.257456242,-1.781742504,-1.368675894,4.813918747
18.70210412,1.888780172,-6.07970387,1.87485722,6.636669291
18.71204012,1.617912,-8.654052828,4.161604882,9.738029821
18.72197512,2.320579506,-10.32713711,4.671867127,11.56983978
18.73191113,2.780489914,-11.83717353,3.739275406,12.72131998
18.74184612,2.92082192,-13.5721734,2.591126958,14.12264247
18.75178212,3.132615673,-15.35545255,1.587100389,15.75189168
18.76171713,3.386564634,-16.88285988,1.510562675,17.28529946
18.77165313,3.400767813,-17.57804354,2.428983668,18.06800481
18.78158912,1.906384676,-16.57970397,3.523864274,17.05691958
18.79152412,0.6036940259,-14.74746608,4.228049133,15.35345569
18.80146013,0.9595374441,-12.85088543,4.638096825,13.69590854
18.81139512,2.157834537,-10.94702851,4.865481008,12.17236988
18.82133112,3.507544403,-9.222773488,4.684890922,10.92294015
18.83126612,4.715035658,-7.535919015,4.064217167,9.774430819
18.84120213,6.389057246,-5.935747175,2.729756255,9.138091499
18.85113712,8.273661629,-4.125580772,0.7309905419,9.27406279
18.86107312,9.000486907,-2.915287823,-0.3408818552,9.466988333
18.87100912,8.149286674,-2.803484382,-0.1031709042,8.618645034
18.88094413,6.901515412,-4.14195473,0.7929795063,8.087986181
18.89088012,5.918346446,-6.078577112,1.465578583,8.609520599
18.90081512,5.442096578,-7.368564101,1.56117822,9.292439374
18.91075113,4.549938647,-8.30081259,1.405788464,9.569831375
18.92068612,3.908482718,-9.132073233,1.264000063,10.01342573
18.93062212,3.711729173,-10.15740413,1.148636691,10.87516245
18.94055712,3.700959772,-11.10018112,1.258255027,11.76836139
18.95049313,3.3886249,-11.98861993,1.577077969,12.55774508
18.96042912,3.544897293,-12.64228133,0.5662408555,13.14207757
18.97036412,3.279388679,-12.47054393,-2.506099379,13.13580565
18.98030012,0.7404153764,-10.11525974,-4.10018339,10.93975312
18.99023513,-0.4092320055,-6.887499636,-3.485549516,7.730082633
19.00017112,-1.273549297,-1.960097199,-2.119019843,3.155020433
19.01010612,-2.756687361,3.844247838,-2.004278468,5.137577135
19.02004213,-6.227143752,11.9058409,-4.792397829,14.26511282
19.02997712,-15.11238496,29.0708453,-9.798540627,34.19809387
19.03991312,-31.39068835,47.6281583,-12.01830975,58.29456705
19.04984912,-32.79755651,34.81343322,-7.774199485,48.45712561
19.05978413,-7.897638885,14.79173652,-1.140975669,16.80684369
19.06972013,-2.148030803,11.04175457,-2.294832754,11.48044588
19.07965512,-4.656440125,14.11021313,-5.934105277,15.99981733
19.08959112,-9.902240996,17.95530121,-8.68734512,22.26919809
19.09952613,-13.10961888,18.64583516,-8.092125463,24.18701657
19.10946212,-14.45255357,16.73173041,-6.510408606,23.04804823
19.11939712,-12.96678192,14.05146966,-4.821903757,19.71882321
19.12933313,-9.013368323,12.17110919,-2.941819856,15.42825368
19.13926913,-5.026070108,11.59014738,-1.743911895,12.75280855
19.14920412,-2.509747165,10.25669687,-0.8505672714,10.59349452
19.15914012,-0.7014571327,6.935895871,-0.1023639885,6.972027828
19.16907513,0.9406591237,2.831994236,0.7790154782,3.084136193
19.17901113,2.473430401,-1.115993732,0.6639361346,2.793583925
19.18894612,3.616396754,-4.377895728,-0.5393623745,5.703964259
19.19888212,4.969643308,-6.978806248,-1.289582362,8.663954866
19.20881713,6.344604374,-9.245189373,-0.9850194637,11.25601149
19.21875312,7.581233182,-11.24348234,0.03820804596,13.5606951
19.22868912,8.935146611,-13.04790736,1.977539882,15.93723299
19.23862413,9.611552517,-14.57717879,3.737819742,17.85629804
19.24856013,8.906435612,-15.84615556,4.792644582,18.79879474
19.25849512,7.187332576,-16.22773316,5.426145959,18.55909839
19.26843112,5.945365845,-15.93892281,5.228218879,17.79693535
19.27836613,5.263081148,-15.23140036,4.544514477,16.74360152
19.28830213,4.483121052,-14.13309679,4.325814871,15.44524113
19.29823712,3.645106875,-12.73850545,4.252508036,13.91546442
19.30817312,3.20059394,-11.01414519,3.298648238,11.93466698
19.31810913,4.055057796,-9.150941613,1.94110018,10.19564103
19.32804412,5.359315208,-7.637731318,0.8711487396,9.371024454
19.33798,5.908051254,-6.556385263,0.3115054438,8.831098061
19.347915,5.522911531,-5.734678386,0.2940561828,7.967154888
19.357851,4.67310966,-5.203140171,0.8471595141,7.044735678
