Time (s),Linear Acceleration x (m/s^2),Linear Acceleration y (m/s^2),Linear Acceleration z (m/s^2),Absolute acceleration (m/s^2)
0.009491874996,0.1802252563,0.1799305201,0.3440419829,0.4280432467
0.019507875,0.213655524,0.117650072,0.2848245987,0.3749870324
0.029522875,0.2029378518,0.1427814049,0.2288378012,0.3375456125
0.039537875,0.2601096242,0.1623151982,0.2027890402,0.3675957494
0.049552875,0.3204736108,0.2226251346,0.2116712531,0.4439256753
0.059567875,0.4273560351,0.3104754567,0.347401793,0.6322311253
0.069582875,0.5178791195,0.3568544018,0.4114843529,0.7515738282
0.079597875,0.5435849413,0.3151953292,0.4903094977,0.7970169933
0.089613875,0.5955722433,0.3444881254,0.5663978532,0.8911705189
0.099628875,0.65814973,0.4022720647,0.5518336084,0.9484219591
0.109643875,0.6441102728,0.3187393266,0.3091039923,0.7823158441
0.119658875,0.5259655264,0.3079576457,0.08778337151,0.6157788294
0.129673875,0.5962686467,0.3951361227,-0.02990733862,0.7159352648
0.139688875,0.6291644973,0.1736523646,-0.178193897,0.6765768052
0.149703875,0.5602413198,0.04479084134,-0.04957327902,0.5642110119
0.159719875,0.6255900943,0.1213238776,0.1151860553,0.6475726034
0.169734875,0.6437038913,0.2126608944,0.0482874763,0.6796403726
0.179749875,0.6281970754,0.1784131676,-0.1587612605,0.6720624687
0.189764875,0.5355833191,0.002545877695,-0.3917850834,0.6635898769
0.199779875,0.4616061008,-0.1148399001,-0.5747927007,0.746093187
0.209794875,0.3420843351,-0.01128044844,-0.6459208632,0.7310011644
0.219809875,0.2567173254,0.1189078081,-0.6608388644,0.7188538494
0.229825875,0.1220024469,0.104176333,-0.4848201317,0.5106739326
0.239840875,0.1229081807,0.1501594216,-0.3137221232,0.3688845935
0.249855875,0.1688605714,0.1878809792,-0.2429705215,0.3504965466
0.259870875,0.09898254365,0.1960115325,-0.4071147287,0.4625586094
0.269885875,0.06975874911,0.1524702412,-0.6888987753,0.709009859
0.279900875,0.1363924447,0.02676387548,-1.080679473,1.089581263
0.289916875,0.1226769141,-0.1159362531,-1.23181041,1.243321248
0.299931875,0.05545703977,-0.3034827715,-1.162794262,1.203024426
0.309946875,0.04057733774,-0.4061160243,-1.004617723,1.084358573
0.31996175,0.05832510819,-0.4046390176,-0.7214747831,0.8292529261
0.32997675,0.1722086871,-0.1776074213,-0.5060744682,0.5633041766
0.33999175,0.04522441695,0.08735681713,-0.7010843727,0.7079518056
0.35000675,0.108767859,0.2537013316,-1.186588921,1.21827258
0.36002175,0.2973996207,0.1458038306,-1.516696404,1.552441069
0.37003775,0.401920647,0.07508818924,-1.779864963,1.826224994
0.38005275,0.4683546647,-0.007820066214,-1.809457721,1.869105265
0.39006775,0.4869704452,-0.1194100839,-1.656990988,1.731189798
0.40008275,0.5703780529,-0.2586808205,-1.282271004,1.427047938
0.41009775,0.7869951734,-0.2867749375,-0.810021801,1.165219544
0.42011275,0.9901636979,-0.2103910053,-0.398026109,1.087710121
0.43012875,1.134862405,-0.134450292,-0.01903736472,1.142957558
0.44014375,1.293532741,-0.06923278749,0.266266121,1.322466551
0.45015875,1.382221262,-0.001010398865,0.2798863328,1.410274085
0.46017375,1.458798152,-0.03113116086,0.05990940213,1.460359659
0.47018875,1.503905328,-0.1749101007,-0.2414631093,1.533176184
0.48020375,1.536766972,-0.4601033664,-0.6845686197,1.744127871
0.49021875,1.695745749,-0.7161225343,-0.7537683704,1.989108314
0.50023375,1.803042741,-0.7090362936,-0.939606771,2.153266466
0.51024975,1.799014302,-0.5022512662,-1.222336459,2.232222034
0.52026475,1.836505187,-0.2541702783,-1.525961902,2.401231675
0.53027975,1.978279116,0.01644529402,-1.823667186,2.690654328
0.54029475,2.004159477,0.1010340393,-2.01185222,2.841551063
0.55030975,2.118237778,0.3740265048,-2.432650018,3.247247022
0.56032475,2.36371003,0.6567083913,-2.637912869,3.602356913
0.57033975,3.3718469,0.8253578782,-2.690988046,4.392264086
0.58035575,3.818907467,0.3986128771,-2.721747324,4.706469479
0.59037075,2.007755954,-1.342411371,-1.402609333,2.792931291
0.60038575,1.102120628,-2.130147679,-0.2597122693,2.412394967
0.61040075,1.728120028,-1.251451499,-0.1076525027,2.136379823
0.62041575,2.321353677,-0.09103939354,-0.475655352,2.371332764
0.63043075,2.199125528,0.4766322756,-0.4138875586,2.287932325
0.64044575,2.061489965,0.9377460408,-0.1443718475,2.269350511
0.65046175,1.894111955,1.544336777,0.1084985948,2.446304994
0.66047675,1.55924133,2.164657361,0.2888827126,2.683361369
0.67049175,1.058655058,2.492216628,0.1454383796,2.711650157
0.68050675,0.4647156501,2.062543341,0.003708304167,2.114251504
0.69052175,0.03093615621,0.8396145594,0.2402211607,0.8738511659
0.70053675,-0.3543832954,-0.5973907274,0.5341898545,0.8762545303
0.71055175,-0.8330054516,-1.724654968,0.5805057228,2.001329492
0.72056775,-1.352779946,-2.150601239,0.6438269752,2.620994553
0.73058275,-1.878922205,-1.926134816,1.021992285,2.878334972
0.74059775,-2.118050813,-1.422223526,1.401786484,2.910990269
0.75061275,-2.101313304,-0.8659165049,1.823455955,2.913815474
0.76062775,-1.844972832,-0.2279466856,2.302052311,2.958940568
0.77064275,-1.427832175,0.5330029428,2.575802575,2.992917601
0.78065775,-0.9616740167,1.345962385,2.476336759,2.978032136
0.79067375,-0.5368985771,2.056019602,2.127549176,3.006982239
0.80068875,-0.1321891737,2.358451045,1.645559682,2.878824756
0.81070375,0.1399756915,2.216691733,0.9713516703,2.424219359
0.82071875,0.1849111784,1.609146146,0.3350928193,1.654034661
0.83073375,0.01231365144,0.7237139744,0.05952757895,0.7262624012
0.84074875,-0.4079578972,-0.1237469637,-0.1581004521,0.4546852866
0.85076375,-1.201870327,-0.7942173618,-0.3881855375,1.491965654
0.86077875,-2.187758687,-1.306528763,-0.5418065107,2.60516022
0.87079475,-2.956848662,-1.729830338,-0.474376566,3.458366687
0.88080975,-3.433908954,-1.851805011,-0.6092659108,3.948685535
0.89082475,-3.400052991,-1.750885577,-0.7149191042,3.890638761
0.90083975,-3.080319638,-1.559113861,-0.6996941241,3.522609398
0.91085475,-2.4142883,-1.242461405,-0.511792168,2.763047151
0.92086975,-1.479611901,-0.8698850101,-0.3080652344,1.743804891
0.93088475,-0.6606055605,-0.535533033,-0.286654558,0.8974219585
0.94090075,-0.1306541334,-0.3427971107,-0.3757813273,0.5251589927
0.95091575,0.177650983,-0.2448995179,-0.4811054686,0.5683292335
0.96093075,0.2825520784,-0.2909247065,-0.4749103437,0.624509965
0.97094575,0.2484995024,-0.4787033594,-0.3567047862,0.646643034
0.98096075,0.01323707297,-0.6643080175,-0.199807618,0.693832434
0.99097575,-0.3226736256,-0.7884683794,-0.1640301865,0.8675866274
1.00099075,-0.7500759999,-0.8864642054,-0.1935750709,1.177244283
1.01100675,-1.111045087,-0.8612346393,-0.3449659161,1.447462529
1.02102175,-1.426270237,-0.7770967144,-0.5840209957,1.726037838
1.03103675,-1.728581519,-0.635832662,-0.7295962733,1.981057285
1.04105175,-1.970941007,-0.4693045449,-0.7111213376,2.147218844
1.05106675,-2.070840394,-0.3030518317,-0.7316148052,2.21708831
1.06108175,-2.121164748,-0.2276987636,-0.8169818149,2.284435576
1.07109675,-2.095973773,-0.1457348335,-0.8689172228,2.273623065
1.08111175,-2.031009307,-0.01404150367,-0.9782029259,2.254346232
1.09112775,-2.10777287,0.1577625561,-1.167194291,2.414526456
1.10114275,-2.149625777,0.3924206758,-1.517455958,2.660367936
1.11115775,-2.260277463,0.4626802343,-1.856456471,2.961310156
1.12117275,-2.411629571,0.332210142,-1.993242141,3.146320867
1.13118775,-2.608603701,0.0007642310858,-2.07407522,3.332656878
1.14120275,-2.684268718,-0.3267880189,-2.373433365,3.597954266
1.15121775,-2.611472345,-0.6459115076,-2.986098189,4.019175523
1.16123375,-2.530377019,-0.9178275007,-3.291919262,4.252287338
1.17124875,-2.424631293,-1.068083401,-3.370158516,4.286911182
1.18126375,-2.376370714,-0.9679539263,-3.265767006,4.153228468
1.19127875,-2.453550745,-0.6288294518,-3.126622569,4.023817395
1.20129375,-2.399109074,-0.06835044265,-2.947250458,3.800879029
1.21130875,-2.028925944,0.575853678,-2.712586491,3.436025817
1.22132375,-1.351780511,1.15145768,-2.527011654,3.088519586
1.23133875,-0.7243282244,1.710476639,-2.437582583,3.0646681
1.24135475,-0.1802220038,2.634209243,-2.146445623,3.402758751
1.25136975,-0.09240208715,3.418949438,-1.016185854,3.567966801
1.26138475,0.2439180627,4.088604734,0.3092890567,4.107535077
1.27139975,0.4309704915,4.288073725,1.620734158,4.60435566
1.28141475,0.2378787661,2.952293097,2.676916721,3.992305596
1.29142975,0.5255914508,1.215740215,2.814766,3.110816336
1.30144475,0.5912700082,-0.01731068194,3.102768853,3.15865073
1.31145975,0.9698761985,-0.5748567277,3.044477375,3.246530854
1.32147575,1.938170871,-0.4325086015,2.328540782,3.060338575
1.33149075,2.364810915,0.1017491537,1.421337088,2.76095684
1.34150575,2.151104246,0.7586148351,0.379118114,2.312244903
1.35152075,1.309927164,1.277370452,-0.3818840662,1.869069257
1.36153575,0.2258406647,1.774858577,-0.8780705273,1.993021531
1.37155075,-0.9890546273,2.026018708,-0.8781009328,2.419512784
1.38156575,-1.990291051,2.051010293,-0.349661084,2.879264587
1.39158175,-2.591288926,1.818829054,0.05762606442,3.166423564
1.40159675,-2.822845098,1.28540862,0.2095226938,3.108798727
1.41161175,-2.609613807,0.6447046423,0.1463405685,2.69205198
1.42162675,-2.194583557,0.2206084299,0.002121333294,2.205644932
1.43164175,-1.742432988,-0.2049706364,-0.008935203329,1.754470153
1.44165675,-1.10202298,-0.6534403825,0.0189577695,1.281326804
1.45167175,-0.4187465948,-1.06815883,0.1778236952,1.161005282
1.46168675,0.2028169607,-1.477897789,0.2728748634,1.516501661
1.47170275,0.7441814218,-1.786902087,0.3107561231,1.960457708
1.48171775,1.272073167,-1.947199411,0.3070828291,2.346072367
1.49173275,1.735749767,-1.970288896,0.07584489204,2.626902746
1.50174775,1.961186974,-1.918893625,-0.2187156862,2.752497709
1.51176275,1.948320907,-1.840017024,-0.6075753345,2.747865498
1.52177775,1.671160107,-1.764647584,-0.8302707819,2.568288685
1.53179275,1.377100855,-1.787944645,-0.8973599801,2.428663779
1.54180775,0.9892702433,-1.804903325,-0.6939428759,2.172070059
1.55182375,0.7538300586,-1.797073318,-0.6819479708,2.064651376
1.56183875,0.6195214154,-1.880957474,-0.9417033633,2.192854995
1.57185375,0.4561167347,-2.08365062,-1.117151481,2.407835088
1.58186875,0.3494225907,-2.297599656,-1.238008751,2.633196915
1.59188375,0.3819646847,-2.445110874,-1.481996688,2.884575946
1.60189875,0.3550568216,-2.447807609,-1.876924065,3.104943057
1.61191375,0.182482245,-2.203818503,-2.382514091,3.250613659
1.62192875,0.07403773695,-1.900508224,-2.674312372,3.28167027
1.63194475,0.01926131308,-1.654463822,-2.739242778,3.200167579
1.64195975,-0.2353637324,-1.375710095,-2.527841958,2.887552479
1.65197475,-0.4605674891,-1.033142195,-2.140234711,2.420766371
1.66198975,-0.6070971054,-0.7297319287,-1.773452321,2.011519008
1.67200475,-0.9887017478,-0.3916587836,-1.217511336,1.616558568
1.68201975,-0.9485075489,0.1470025098,-0.560867849,1.11168748
1.69203475,-0.2996521144,0.7090865797,0.1784177723,0.7902076111
1.70205075,0.6523592323,0.7782497853,0.7827703408,1.282175769
1.71206575,1.48060008,0.7324111229,0.898560852,1.880429274
1.72208075,1.85623837,1.159391767,0.3141503587,2.210995387
1.73209575,1.998924465,2.348791444,-0.5538997952,3.133580261
1.74211075,2.346076874,3.4831735,-1.271551303,4.387871585
1.75212575,2.443312709,3.489974982,-1.787221929,4.619942055
1.76214075,1.979856987,2.978046573,-1.135208341,3.75197189
1.77215575,1.692352902,3.264112244,0.8389222491,3.771243512
1.78217175,1.829212685,4.398333501,2.413267522,5.339964117
1.79218675,1.131362846,5.454720132,2.922803834,6.291004361
1.80220175,-1.604982636,6.311420256,2.244948403,6.888380669
1.81221675,-3.11487639,6.747044839,0.3002901918,7.43742181
1.82223175,-1.992753021,5.118524528,0.8512534422,5.55832622
1.83224675,-0.7977423558,1.5744973,3.031873702,3.508232142
1.84226175,-0.6201320109,-1.55349761,2.582768948,3.077111304
1.85227675,-0.9060611486,-3.451500887,0.8912910819,3.678070822
1.86229275,-1.430362996,-4.40672484,0.01454549711,4.633073892
1.87230775,-2.095807712,-4.316511658,-0.1133014612,4.799741669
1.88232275,-2.701377379,-3.318371481,0.6031204506,4.321201605
1.89233775,-3.179187868,-1.717489205,1.343030591,3.854962495
1.90235275,-2.824302516,-0.1554657698,1.874448938,3.393289426
1.91236775,-1.602734236,0.7716851163,2.281192954,2.892766192
1.92238275,-0.141476891,1.243294049,2.150205967,2.487806565
1.93239775,1.150228887,1.65107536,1.513811388,2.518074911
1.94241375,2.229474331,1.994522681,0.9605735707,3.141874934
1.95242875,2.98314593,1.963755217,0.6953438687,3.638543292
1.96244375,3.110611138,1.440313057,0.5269113135,3.468146319
1.97245875,2.797319078,0.6486503434,0.5975410008,2.933052427
1.98247375,2.285365965,-0.1050908375,0.7365246391,2.403416365
1.99248875,1.635298988,-0.8176214272,0.7830485952,1.988937576
2.00250375,1.012416885,-1.429293394,0.8242165017,1.935768684
2.01251875,0.5148258497,-1.828557066,0.9220766723,2.111608863
2.02253375,0.05365989804,-2.063702259,0.9587831533,2.276183546
2.03254975,-0.4121544439,-2.154597226,0.8791475844,2.363273359
2.04256475,-0.8477888207,-2.154554542,0.816653713,2.455152632
2.05257975,-1.240267676,-2.109025782,0.6730063355,2.537556144
2.06259475,-1.440549284,-2.11559279,0.5259675729,2.612959429
2.07260975,-1.431597343,-2.073925531,0.6373535228,2.599395617
2.08262475,-1.340883347,-2.024062815,0.6779758841,2.520803389
2.09263975,-1.196637946,-1.93668027,0.6312595546,2.362448193
2.10265475,-1.005548161,-1.78832296,0.5371100271,2.120781293
2.11267075,-0.8754101904,-1.669107589,0.4362022877,1.934563408
2.12268575,-0.8571329637,-1.617980704,0.4028450918,1.874786026
2.13270075,-0.8654151061,-1.653965054,0.2390973075,1.881943471
2.14271575,-0.8588859589,-1.847328967,0.04002185225,2.037623899
2.15273075,-0.8892014332,-1.972214969,-0.1196872054,2.166710894
2.16274575,-0.8916965863,-1.963551734,-0.3000153726,2.177307383
2.17276075,-0.8702104077,-1.8791501,-0.3233668496,2.095957388
2.18277575,-0.8123127401,-1.695498412,-0.3478491781,1.911953426
2.19279175,-0.7120401545,-1.392048385,-0.4925706526,1.63933698
2.20280675,-0.5921142,-1.007344279,-0.7249874979,1.375117666
2.21282175,-0.5008707386,-0.5743158603,-0.9881268203,1.247840061
2.22283675,-0.3863654454,-0.2210276753,-1.086594517,1.174231295
2.23285175,-0.4648736711,-0.01143423021,-1.075214081,1.17146216
2.24286675,-0.8972581655,-0.06099698424,-1.026708503,1.364889446
2.25288175,-1.715991002,-0.2628744435,-1.188150712,2.103670651
2.26289675,-3.062452008,-0.7707823062,-1.451759566,3.475675978
2.27291275,-4.494556451,-1.144507095,-1.623501645,4.913928345
2.28292775,-5.595942085,-0.8978884953,-1.5859327,5.885231864
2.29294275,-6.128828083,-0.1289603412,-1.519449858,6.315686211
2.30295775,-5.483716475,0.8629256541,-1.60786853,5.779362272
2.31297275,-3.642411601,1.496914689,-1.78556249,4.3239044
2.322988042,-1.525369872,1.943270667,-2.193204052,3.303513
2.333003042,0.3207054529,2.650205471,-2.569966469,3.705559159
2.343018042,1.129384002,2.943573144,-1.805813736,3.633331024
2.353033042,1.512682144,2.724767995,0.3531607157,3.136445503
2.363049042,2.004443213,2.63231533,2.529718915,4.164895482
2.373064042,2.325447021,2.120429022,3.280702549,4.546089781
2.383079042,2.619749079,1.200847941,3.004262565,4.163017484
2.393094042,2.836450984,0.4143114817,3.3787089,4.430889529
2.403109042,3.063122392,0.186516239,3.712089069,4.816338065
2.413124042,3.682336097,0.5387601113,2.99383581,4.77628668
2.423139042,4.273832247,1.61388356,1.338669738,4.760493555
2.433154042,3.947866346,3.063648641,-0.02003899276,4.99719854
2.443169042,2.487368701,4.310773786,-0.1410126221,4.978921394
2.453185042,0.6950132087,5.098512433,0.3009124086,5.154456389
2.463200042,-0.4974486557,5.55053904,0.6153574669,5.60665708
2.473215042,-1.119237621,5.064605598,0.8214553734,5.251448529
2.483230042,-1.666137495,3.551832676,1.323911365,4.14056407
2.493245042,-1.848232655,1.922720042,1.36650073,2.996688264
2.503260042,-1.569230713,0.9630007499,0.9226923841,2.059421451
2.513275042,-1.195234614,0.4305299038,0.7816891176,1.49163657
2.523290042,-0.9439075443,0.1620175749,0.2138946204,0.9813063005
2.533306042,-0.5231085768,-0.08578742445,-0.3270757385,0.6228808908
2.543321042,-0.145209315,-0.5954950601,-0.6351228831,0.8826557587
2.553336042,0.2892942104,-1.255133491,-0.7349587548,1.48297525
2.563351042,0.7190522817,-1.869495762,-0.6116433156,2.094315672
2.573366042,1.095613701,-2.277326775,-0.5132616464,2.578764072
2.583381042,1.31881961,-2.416554242,-0.6435610731,2.827223094
2.593396042,1.285386108,-2.339422451,-0.8874722654,2.812956073
2.603411042,1.205811058,-2.191545197,-1.094698246,2.730423943
2.613426042,1.12884869,-2.199475776,-1.268866262,2.778851317
2.623442042,1.084309571,-2.336739748,-1.267329614,2.870923936
2.633457042,1.048109897,-2.561664008,-1.188146108,3.012033868
2.643472042,1.09241542,-2.797779838,-1.120460493,3.205678585
2.653487042,1.211605502,-2.956959175,-1.017096339,3.353517618
2.663502042,1.351735195,-3.042289932,-1.075064392,3.498353829
2.673517042,1.394532428,-3.0083562,-1.490816628,3.635582751
2.683532042,1.250465367,-2.851656668,-2.179528438,3.800783288
2.693547042,1.016943215,-2.62501742,-2.602680472,3.833906049
2.703562042,0.5910163853,-2.342748932,-2.812366887,3.707719034
2.713578042,0.07671824679,-1.84495032,-2.86702549,3.410214441
2.723593042,-0.3872745413,-1.210672433,-2.647390037,2.936730038
2.733608042,-0.7853290093,-0.4844698834,-2.063706352,2.260605368
2.743623042,-0.9950098702,0.1689757615,-1.623235158,1.911410429
2.753638042,-1.024599997,0.5997740525,-1.033244521,1.573889548
2.763653042,-0.865431186,0.7146086901,-0.2739303589,1.15528116
2.773668042,-0.6505604826,0.4233968854,-0.09296539329,0.7817521528
2.783683042,-0.6356670396,0.135607456,-0.4303596767,0.7795328208
2.793698042,-0.5732234542,0.08150784731,-0.7021172833,0.9100534804
2.803714042,-0.322420295,0.4858971888,-0.873619042,1.050362392
2.813729042,0.3012728164,1.317844879,-1.430523794,1.968217153
2.823744042,1.128127436,1.625940519,-2.244941386,2.992677047
2.833759042,1.732988712,1.373423249,-2.686655259,3.47960598
2.843774042,1.824419577,1.579733482,-2.022309819,3.14861901
2.853789042,1.933278067,2.657808021,0.2459132789,3.295751948
2.863804042,2.858643214,4.323184501,3.120890543,6.049935788
2.873819042,2.386944088,6.734753991,5.722139617,9.154086257
2.883834042,0.01656647757,9.872193325,4.475641294,10.83936532
2.893850042,-0.5878904638,10.22695091,2.16095198,10.46928143
2.903865042,0.5797423688,6.276375554,3.589322684,7.25342875
2.913880042,0.9660617673,1.492882449,5.120645898,5.420607693
2.923895042,-0.02280282542,-2.690809706,4.385080787,5.144891675
2.933910042,-1.363355513,-5.481781046,2.431134274,6.149721583
2.943925042,-2.411055666,-6.245947813,1.033262647,6.774414012
2.953940042,-2.935279453,-4.633475186,0.2363316293,5.490064699
2.963955042,-3.58217037,-1.703509682,-0.5052777851,3.998649201
2.973970042,-4.159385572,0.9173141152,-0.855642947,4.344430731
2.983986042,-3.780947928,2.210169164,-0.366321044,4.394838572
2.994001042,-2.144127933,1.868785325,0.569097805,2.900606057
3.004016042,-0.3061831619,1.13173736,0.9256890821,1.493813194
3.014031042,0.8815687703,1.110010276,1.024485392,1.748958727
3.024046042,1.594760388,1.274809372,1.04763218,2.294762038
3.034061042,2.040405636,1.163600008,0.9540919322,2.535253745
3.044076042,2.282999889,0.8514744669,0.8127582979,2.568593645
3.054091042,2.22649269,0.2328805661,0.635513404,2.327096977
3.064106042,1.981338672,-0.6761106223,0.6111714453,2.180907848
3.074122042,1.576328941,-1.709069799,0.6932002795,2.426161399
3.084137042,1.161240218,-2.545318701,0.6470751035,2.871555732
3.094152042,0.7275474089,-3.096602964,0.6956748211,3.256107892
3.104167042,0.2824903902,-3.414193897,0.9221140945,3.547790184
3.114182042,-0.08910308808,-3.586990814,0.9690333223,3.71664742
3.124197042,-0.4200268427,-3.634740931,0.8514861614,3.756699731
3.134212042,-0.7125175796,-3.552325011,0.7593632787,3.701800491
3.144227042,-0.9917589645,-3.228063574,0.7326409185,3.455538019
3.154242042,-1.179807466,-2.643084147,0.7211873925,2.982943298
3.164258042,-1.160652573,-1.973248757,0.6861678332,2.389906137
3.174273042,-0.9378508522,-1.366504238,0.6630643147,1.785091689
3.184288042,-0.6103013796,-0.9876795083,0.5588511809,1.288523662
3.194303042,-0.3496743134,-0.8994836158,0.3698504233,1.033504831
3.204318042,-0.2416358945,-1.001727444,0.08425603867,1.033897895
3.214333042,-0.2874051212,-1.177481298,-0.05855401754,1.213463013
3.224348042,-0.5411871444,-1.185484382,0.04932247002,1.304104847
3.234363042,-1.012137388,-1.030679932,-0.09814317584,1.447879587
3.244378042,-1.330359967,-0.7799717903,-0.5084925842,1.623815982
3.254394042,-1.375328856,-0.5817049867,-0.8034267996,1.695701854
3.264409042,-1.306989085,-0.5708472919,-0.8734483033,1.672423103
3.274424042,-1.112044669,-0.5021460164,-1.038884161,1.602521222
3.284439042,-0.9328302866,-0.3730927044,-1.18336652,1.552329485
3.294454042,-0.8855529168,-0.2224795389,-1.57379505,1.819486733
3.304469042,-1.117376306,-0.1744639581,-1.977673345,2.278192121
3.314484042,-1.76282296,-0.350249387,-2.13320051,2.789402058
3.324498875,-3.110665517,-0.876185385,-2.097859354,3.852915086
3.334513875,-4.847135077,-1.411999084,-1.930129634,5.404984761
3.344529875,-5.902326829,-1.217519522,-1.756455635,6.277336393
3.354544875,-5.732887968,-0.2529932338,-1.769457504,6.00508034
3.364559875,-4.481252866,0.4116726333,-1.55188027,4.760192641
3.374574875,-2.036103986,1.045005026,-1.28938648,2.626836965
3.384589875,0.9357509708,2.805705155,-1.081737235,3.149248599
3.394604875,2.402458798,4.075185959,0.03091364443,4.730740378
3.404619875,2.845380267,4.309435358,2.500079378,5.737405238
3.414634875,3.177117662,4.004642226,5.441881986,7.46627856
3.424649875,3.242499473,3.079619726,4.96433579,6.681503598
3.434664875,3.213615689,1.910895803,3.860938715,5.374541499
3.444680875,3.397961442,1.131248533,3.565095915,5.05329339
3.454695875,3.353972839,1.189392076,3.029723096,4.673650538
3.464710875,3.327684926,2.096808609,2.215117663,4.514071286
3.474725875,3.185711607,3.55960421,0.7845244324,4.840972956
3.484740875,2.308587451,4.654395354,0.1258414364,5.196999923
3.494755875,0.9736317189,5.007680615,0.02134878734,5.101497784
3.504770875,-0.09554598883,4.998710402,0.3374843305,5.011000937
3.514785875,-0.5908871618,4.822755404,0.3999793714,4.875253923
3.524800875,-0.8107285832,3.908521602,0.6352420932,4.041949339
3.534816875,-0.890774188,2.448639084,0.9415479004,2.770527831
3.544831875,-0.9706177716,1.124509032,1.039205757,1.812889414
3.554846875,-1.144870645,-0.08783219576,1.470708638,1.865858298
3.564861875,-1.058030283,-0.9017330396,1.723962073,2.214632201
3.574876875,-0.74500164,-1.341995049,1.148498404,1.917035925
3.584891875,-0.4053108627,-1.833679227,0.5446383172,1.955322812
3.594906875,-0.1782209404,-2.469527677,0.1936673838,2.483512977
3.604921875,0.09229990706,-3.126284015,-0.01566761434,3.127685485
3.614936875,0.5431675963,-3.599592733,-0.1164701039,3.642205948
3.624952875,0.9535763539,-3.750068489,-0.2854324168,3.879921804
3.634967875,1.347938159,-3.482838455,-0.5163605976,3.770109979
3.644982875,1.607515942,-3.00304342,-0.7421829897,3.486145849
3.654997875,1.477661854,-2.55603197,-1.142461154,3.165754487
3.665012875,1.354941369,-2.23202781,-1.314293865,2.923214433
3.675027875,1.273633351,-2.177881424,-1.320176749,2.847485918
3.685042875,1.15904108,-2.277477633,-1.23117511,2.836560019
3.695057875,1.139554357,-2.412840675,-0.9977343804,2.848834525
3.705072875,1.0723143,-2.539160414,-0.9760961741,2.924031003
3.715088875,0.9852941367,-2.530056884,-1.277633577,3.000723234
3.725103875,0.9095197767,-2.458096955,-1.762781737,3.158617786
3.735118875,0.8523838551,-2.286140283,-2.004095158,3.157434565
3.745133875,0.7645072205,-2.010123053,-2.078427887,2.990807325
3.755148875,0.746840297,-1.592524266,-2.195073992,2.812872873
3.765163875,0.5484007081,-1.199867948,-2.493750352,2.821208473
3.775178875,0.1974229042,-0.7896676433,-2.781973645,2.898607968
3.785193875,-0.3272286066,-0.3293724883,-2.690818477,2.730580318
3.795208875,-0.8029447697,0.1418996447,-1.893895608,2.061964206
3.805223875,-0.9454243121,0.3919347721,-0.623644141,1.198487384
3.815239875,-0.7962631564,0.2732327861,0.3673115258,0.9184818597
3.825254875,-0.5557548974,0.2071791297,0.6934996569,0.9125395728
3.835269875,-0.06519236147,0.8347777426,0.4090220904,0.931881427
3.845284875,0.4850459804,2.401140397,0.1361132401,2.453420392
3.855299875,1.033899994,4.194293742,-0.8943041521,4.411442973
3.865314875,1.363897403,4.5517966,-2.21336876,5.24195285
3.875329875,1.314220044,3.509115842,-2.954299276,4.771682359
3.885344875,0.7823103842,2.143868755,-3.411217664,4.10421597
3.895359875,-0.652750411,0.18021411,-3.359038281,3.426616174
3.905375875,-2.590004877,-1.676202015,-3.209515622,4.451827601
3.915390875,-3.165655657,-2.361530188,-1.811451037,4.345061039
3.925405875,-0.7834790964,-0.8378679961,0.7327929461,1.361193511
3.935420875,1.494384306,2.296420857,1.575710013,3.160632097
3.945435875,1.02275637,6.843776497,2.804061502,7.466328967
3.955450875,-0.3649510413,10.95544265,4.439986142,11.82659671
3.965465875,-0.5482279229,9.867059469,6.29213263,11.71538943
3.975480875,0.08926461741,4.602530551,7.802252086,9.059050351
3.985495875,-0.353165832,0.3884808218,6.742151889,6.762562794
3.995511875,-0.7739120284,-1.621896,5.023016692,5.334808633
4.005526875,-0.9563327314,-2.527204027,2.71483533,3.830360735
4.015541875,-0.9044094564,-2.486346608,0.3432947818,2.6679069
4.025556875,-1.119476334,-1.79000345,-0.9478522222,2.314252244
4.035571875,-1.029393837,-0.9577622294,-1.44757296,2.018025677
4.045586875,-0.5296378702,-0.58246454,-1.361279751,1.572534189
4.055601875,0.3123085588,-0.4561933333,-1.199377366,1.320664628
4.065616875,0.9940083884,-0.222061463,-0.9312299037,1.380055471
4.075631875,1.322155446,0.1208479142,-0.6334300411,1.471031223
4.085646875,1.40109812,0.5302424723,-0.2270660583,1.515187123
4.095662875,1.198477041,0.8993731034,0.4552852972,1.566047221
4.105677875,0.8334704514,1.003137792,1.183360673,1.76105108
4.115692875,0.5716173702,0.6930733949,1.76696542,1.982237106
4.125707875,0.3946000792,-0.1047481906,2.169788293,2.207863818
4.135722875,0.3097080097,-1.196998134,2.211218154,2.533418503
4.145737875,0.3335023767,-2.253995215,1.756206543,2.876800251
4.155752875,0.2919829063,-3.096601794,1.090458941,3.295951667
4.165767875,0.006776192039,-3.774908631,0.4292487788,3.799241451
4.175782875,-0.2781000084,-4.116800593,0.1331259159,4.128330079
4.185797875,-0.4742075814,-4.057434397,0.3586646998,4.100766646
4.195813875,-0.7194943312,-3.628614219,0.7297968328,3.770559197
4.205828875,-0.9560266297,-3.079577626,0.8872623503,3.344401254
4.215843875,-1.070492454,-2.431270514,1.016927866,2.844498671
4.225858875,-1.04572321,-1.735868173,1.002157214,2.260772972
4.235873875,-0.8895018339,-1.113202856,0.9310901552,1.702164207
4.245888875,-0.6851973416,-0.8304443711,0.7740123081,1.325982015
4.255903875,-0.3906355208,-0.8084372056,0.5407545966,1.048132797
4.265918875,-0.1818957692,-0.9714488071,0.3499856776,1.048469756
4.275933875,-0.1585342424,-1.079847999,0.1321453104,1.099394011
4.285949875,-0.4491768207,-0.9654133111,0.04024231056,1.065552496
4.295964875,-0.8586446151,-0.6452496028,0.1076975445,1.079451891
4.305979875,-1.232939653,-0.2551596272,0.1481988227,1.267757672
4.315994875,-1.528225067,0.03895415068,0.1032507187,1.532204292
4.326009667,-1.683823715,0.1596763498,-0.1416487992,1.697298801
4.336024667,-1.617962578,0.2351106942,-0.9336985981,1.882783316
4.346039667,-1.460352196,0.2495053697,-2.054325664,2.532811757
4.356054667,-1.31785365,-0.007982618809,-2.792107455,3.087501579
4.366069667,-1.521657328,-0.4936213607,-3.067749878,3.459796582
4.376084667,-2.608793736,-0.981132381,-2.751695008,3.916663238
4.386100667,-4.249349662,-1.405986392,-1.934719698,4.87615736
4.396115667,-5.68221132,-1.405267185,-0.8716958928,5.917951932
4.406130667,-6.177751152,-0.6881956476,-0.1633407998,6.218110868
4.416145667,-4.989267733,0.4987750965,-0.03339578748,5.014248138
4.426160667,-2.662615601,1.187495239,-0.3098591602,2.931838925
4.436175667,-0.2376207577,1.477552219,-1.066892323,1.837901906
4.446190667,1.846299857,1.616880258,-1.874106292,3.087944191
4.456205667,3.471206881,1.937128751,-2.296785139,4.590965801
4.466220667,3.840440131,2.230394098,-1.301026533,4.627775737
4.476235667,3.370218742,2.036348984,2.063350257,4.445504003
4.486251667,2.760670484,1.531138442,6.032830836,6.808871738
4.496266667,2.202150146,0.8277716088,6.764579469,7.161997382
4.506281667,2.372944392,0.4509694308,4.355262326,4.980215702
4.516296667,2.634032072,0.2503193021,2.295826195,3.503084731
4.526311667,2.363735027,0.3381392187,2.003803967,3.117180095
4.536326667,2.159442522,1.611361656,1.621958565,3.144905083
4.546341667,2.083031985,3.923690448,1.55387534,4.706261527
4.556356667,1.581238555,6.055075983,1.611649924,6.462327445
4.566371667,0.6863859344,7.392080433,1.12414592,7.508507364
4.576386667,-0.2701254295,7.455106401,0.4637321484,7.474398083
4.586402667,-0.9869012439,6.24285639,0.1466973034,6.322084314
4.596417667,-1.267318504,4.413122279,0.7742333329,4.656305584
4.606432667,-1.372818646,2.374400495,1.455369637,3.104916992
4.616447667,-1.417276489,0.7123072261,1.356318973,2.087020696
4.626462667,-1.407141218,-0.2382483101,0.6768783617,1.579548347
4.636477667,-1.593533349,-0.7423163062,0.1748610572,1.766623453
4.646492667,-1.775435697,-1.200597095,-0.1326604227,2.147371437
4.656507667,-1.587747968,-1.800302736,-0.4576486687,2.443660339
4.666522667,-1.033905256,-2.439560696,-0.6485486019,2.727825464
4.676537667,-0.3493992019,-3.042201639,-0.7002871048,3.141253355
4.686553667,0.485334979,-3.379538035,-0.6307777441,3.471989046
4.696568667,1.22809962,-3.353682232,-0.4654442132,3.601673431
4.706583667,1.746298583,-3.121634894,-0.3966774487,3.598821495
4.716598667,1.997312826,-2.841208863,-0.3813670993,3.49387567
4.726613667,2.136331109,-2.63809004,-0.3792328656,3.415735241
4.736628667,2.054527978,-2.541317452,-0.3642891365,3.288173684
4.746643667,1.909240018,-2.588859993,-0.4324296641,3.245672337
4.756658667,1.825522215,-2.732555317,-0.2789747701,3.298062589
4.766673667,1.762603836,-2.899200379,-0.2696782819,3.403654138
4.776688667,1.629715043,-3.031493633,-0.4581106353,3.472144888
4.786704667,1.370401407,-3.002411921,-0.7903663856,3.39369362
4.796719667,1.083512011,-2.824910334,-1.22741535,3.265067398
4.806734667,0.9607314456,-2.624054968,-1.488141527,3.16594924
4.816749667,0.8115324292,-2.377611786,-1.571706424,2.963424332
4.826764667,0.4612719324,-2.023156496,-1.700371481,2.682759247
4.836779667,-0.03590190411,-1.594724573,-1.872536899,2.45984346
4.846794667,-0.4894824091,-1.131575392,-2.040834968,2.38433707
4.856809667,-0.7705545571,-0.7169218487,-1.910387095,2.181125883
4.866824667,-0.6518011156,-0.3091902387,-0.8085658443,1.083615256
4.876839667,-0.2025460884,0.03689534605,0.297385295,0.3616962789
4.886855667,0.2777637935,0.4111282575,0.349201566,0.6067296785
4.896870667,0.5804837957,0.9129140854,-0.2222667185,1.104434724
4.906885667,0.6015643238,1.606222538,-0.6889399981,1.848369227
4.916900667,0.7367118962,2.918350595,-0.7823749959,3.109923672
4.926915667,1.289734682,4.423093536,-1.065217681,4.728832909
4.936930667,1.512801282,4.661770447,-1.788126494,5.217093805
4.946945667,1.143875742,3.869883785,-2.356027374,4.672827539
4.956960667,0.6740892398,2.918206168,-2.432464516,3.858394376
4.966975667,0.037952815,2.1234035,-0.7976935315,2.268611428
4.976990667,-0.6196231569,2.045679971,1.100161811,2.403974919
4.987005667,-0.694398374,2.979192043,1.456949555,3.388285161
4.997021667,-1.140611095,5.054838994,0.3484893751,5.193634158
5.007036667,-1.337267575,6.657764872,-0.4595244555,6.806267728
5.017051667,-0.2741079681,6.116890993,1.431220636,6.288074674
5.027066667,0.9657587354,3.707813001,2.998536386,4.865366137
5.037081667,1.348562496,0.8408091456,3.018927966,3.411672154
5.047096667,0.5977016531,-1.305255824,2.668146483,3.029842518
5.057111667,-0.5168394846,-2.627636973,1.839825089,3.249085329
5.067126667,-1.353901003,-3.260220337,1.607435836,3.878908937
5.077141667,-1.759820415,-3.016444069,1.740435433,3.901924937
5.087156667,-1.94904333,-1.906132076,1.693495156,3.209366797
5.097172667,-1.816478765,-0.2828567183,1.404289531,2.313359486
5.107187667,-0.9231326795,0.8963740665,1.394431125,1.897392572
5.117202667,0.445551547,1.028969622,1.458780903,1.839928364
5.127217667,1.907440391,0.9358918887,0.8802631601,2.299801231
5.137232667,3.221811731,1.189536502,0.3264886415,3.449878658
5.147247667,3.824602655,1.199413619,0.2124643183,4.013890829
5.157262667,3.745492751,0.8885042989,0.3348934293,3.86397586
5.167277667,3.321117918,0.4759873277,0.573108995,3.403651287
5.177292667,2.691764556,0.08453202724,0.8249041343,2.816595271
5.187307667,1.889968033,-0.4936576134,0.9827731097,2.186668697
5.197323667,1.074806238,-1.28620501,1.079116513,1.993495479
5.207338667,0.5398118792,-2.004347758,1.194018978,2.394679126
5.217353667,0.1675959648,-2.550075411,1.204742771,2.825310276
5.227368667,-0.09892948017,-2.851540893,1.060838116,3.04408443
5.237383667,-0.3036070248,-2.948940888,0.9737836003,3.120366018
5.247398667,-0.5698336771,-2.956461577,0.7140526199,3.094389539
5.257413667,-0.8693609534,-2.742182758,0.6009779942,2.938797253
5.267428667,-1.171224485,-2.341984116,0.5824937761,2.682527799
5.277443667,-1.33153058,-1.775515219,0.604344821,2.300143613
5.287458667,-1.454081788,-1.27460238,0.6260344827,2.032457686
5.297473667,-1.452506694,-0.9920643353,0.5851109898,1.853731969
5.307489667,-1.249375884,-0.9835905504,0.2921385702,1.616705111
5.317504667,-0.9243198104,-1.155307487,-0.1418277423,1.486343705
5.327520292,-0.7944851643,-1.334281402,-0.5107811844,1.634751038
5.337535292,-0.9338991576,-1.36447467,-0.6441690373,1.774517543
5.347550292,-1.214664619,-1.256870114,-0.7108588707,1.886916256
5.357565292,-1.441635697,-1.133413757,-0.747550149,1.980346296
5.367580292,-1.45660223,-1.012172325,-0.8914781928,1.985174108
5.377595292,-1.301914432,-0.8378147864,-0.9609793675,1.82219542
5.387610292,-1.184878172,-0.659737249,-0.9260200346,1.642164006
5.397625292,-0.9993030421,-0.326057117,-1.172295402,1.574546387
5.407640292,-0.6914449453,-0.03043592691,-1.449010205,1.605818493
5.417656292,-0.4237452333,0.03885007024,-1.631390709,1.685973011
5.427671292,-0.319185323,-0.1255058062,-2.085639843,2.113651942
5.437686292,-0.7223258454,-0.5010607731,-2.454884495,2.607541832
5.447701292,-1.630928486,-1.009632295,-2.519013247,3.166182692
5.457716292,-2.853144785,-1.341543059,-2.29088179,3.897218536
5.467731292,-3.899439706,-1.066544999,-2.010068089,4.5148114
5.477746292,-4.17958624,-0.2565559423,-1.817426891,4.564844203
5.487761292,-3.466077411,0.6717123467,-1.644020694,3.894572395
5.497776292,-1.737717501,1.333389117,-1.593677337,2.708762837
5.507791292,0.3059546819,2.303848575,-1.958964593,3.039550757
5.517806292,1.892525167,3.300174946,-1.883296945,4.244951539
5.527822292,2.55334956,3.512113125,-0.2848412633,4.351513199
5.537837292,2.752219504,3.717690117,2.310956451,5.170730289
5.547852292,2.470963461,3.428700255,3.974194604,5.801367822
5.557867292,2.140485848,2.767572538,4.291532353,5.537001658
5.567882292,1.635162455,1.960708818,5.510333,6.073047431
5.577897292,1.405655732,1.42612011,5.824085237,6.158705664
5.587912292,2.31634773,1.615679825,3.917545609,4.829394548
5.597927292,3.565737939,1.974671969,3.115786509,5.1304914
5.607942292,4.091001508,2.637406501,1.896998141,5.224060521
5.617957292,3.699462007,3.388003049,0.6263841462,5.055387315
5.627972292,2.699410083,3.870851499,-0.05401950181,4.719451688
5.637988292,1.457783368,3.964577104,-0.3740838075,4.240629983
5.648003292,0.1433015147,3.516651149,-0.1532543528,3.5229047
5.658018292,-0.877090534,2.693443292,0.26552791,2.845071114
5.668033292,-1.494956749,1.646877644,0.5542482162,2.292224409
5.678048292,-1.802785902,0.7252786893,0.8623450255,2.125959813
5.688063292,-1.916379322,0.175449214,1.039355446,2.187133255
5.698078292,-1.83459534,-0.4213141072,0.8912057126,2.082664942
5.708093292,-1.509690709,-1.113362485,0.4874929305,1.938141227
5.718108292,-1.054921465,-1.531528451,0.1009907881,1.862427941
5.728123292,-0.5902451375,-1.790699853,-0.1641126323,1.892598278
5.738138292,-0.04531738311,-2.06660891,-0.2191290843,2.078687953
5.748154292,0.594396953,-2.290359634,-0.176620996,2.372814777
5.758169292,1.315171386,-2.327698783,-0.1562294161,2.67810848
5.768184292,1.883910757,-2.236916667,-0.3488635969,2.945271078
5.778199292,2.197923048,-2.114160222,-0.6873261666,3.126172808
5.788214292,2.247234079,-2.028121367,-0.8622356826,3.14750499
5.798229292,2.14506378,-2.081132224,-0.7851974469,3.090136726
5.808244292,1.85825946,-2.141032271,-0.743303901,2.930810143
5.818259292,1.581236947,-2.19778827,-0.6732969421,2.789966368
5.828274292,1.419696505,-2.213133702,-0.6131647611,2.699901845
5.838289292,1.33876227,-2.247493696,-0.68504049,2.704217595
5.848304292,1.324303567,-2.228433527,-0.9511998993,2.761245583
5.858320292,1.335125448,-2.195765133,-1.315036461,2.886739575
5.868335292,1.176197542,-2.139912529,-1.656364167,2.950628499
5.878350292,0.9881502092,-1.992277935,-2.003823262,2.99347956
5.888365292,0.801316174,-1.776277696,-2.228432357,2.960267021
5.898380292,0.6105531022,-1.507280048,-2.314608622,2.828795027
5.908395292,0.3889069377,-1.186926305,-2.544447466,2.834476242
5.918410292,0.08845024645,-0.8669982398,-2.605209392,2.747112188
5.928425292,-0.2601062255,-0.5796245474,-2.487822445,2.567660488
5.938440292,-0.579013221,-0.2760476357,-1.844387233,1.952747519
5.948455292,-0.7139900547,0.1063690388,-0.7004876643,1.005872327
5.958470292,-0.4449842209,0.3522567362,0.05203671098,0.5699154185
5.968486292,0.1661312373,0.3852063811,0.369498421,0.5590282883
5.978501292,0.8954879209,0.6414512515,0.05432178458,1.102864081
5.988516292,1.482490193,1.514130646,-0.6769122756,2.22454018
5.998531292,2.007457015,3.081094978,-1.59970874,4.010249118
6.008546292,2.736609777,3.982053262,-2.704886293,5.537345132
6.018561292,2.463929552,3.56965382,-3.093077677,5.327335802
6.028576292,1.011516121,3.059688907,-1.665342566,3.62742704
6.038591292,-0.2318456089,2.862619028,0.852476095,2.995839712
6.048606292,-0.520460519,2.982587521,1.310870905,3.299255977
6.058621292,-0.8149907649,3.996341518,2.312629924,4.68862588
6.068636292,-1.524426862,6.388763131,3.301956593,7.351400475
6.078651292,-2.017298025,7.423803332,2.40335883,8.059682432
6.088667292,-1.482076648,5.184630225,3.353723162,6.350149668
6.098682292,-0.8148030692,1.5354379,3.463837928,3.875518904
6.108697292,-1.124105282,-1.240714257,2.282757668,2.830895111
6.118712292,-1.849727203,-2.714455846,1.576610484,3.643550725
6.128727292,-2.460400758,-3.344996778,1.505725858,4.416988306
6.138742292,-2.579256526,-2.988725343,2.015415952,4.432487435
6.148757292,-2.378903582,-1.77924165,1.808961293,3.478106389
6.158772292,-1.631549314,-0.5149625283,1.234865288,2.10998385
6.168787292,-0.474955148,0.09189367175,1.251923954,1.342140241
6.178802292,0.6713005565,0.3017952651,1.147886858,1.363586836
6.188817292,1.682179185,0.6726379609,0.8228295422,1.989778152
6.198833292,2.439679687,1.056548599,0.5220230412,2.709398452
6.208848292,2.795594149,1.157123047,0.3595721146,3.046895551
6.218863292,2.824009863,0.8191387796,0.5412475534,2.989810857
6.228878292,2.547346516,0.3315201706,0.875383147,2.713885692
6.238893292,2.113841402,-0.2461818123,1.124754031,2.407073449
6.248908292,1.608403988,-0.8339784282,1.147986188,2.144843979
6.258923292,1.040531175,-1.462457047,1.110366372,2.110544769
6.268938292,0.5853687058,-1.918726979,1.170713146,2.322657747
6.278953292,0.2301057699,-2.096758908,1.099640239,2.378771792
6.288968292,-0.06572957441,-2.173749781,0.8536852992,2.336297729
6.298983292,-0.3414211147,-2.251047049,0.8301011395,2.42339619
6.308998292,-0.5999333891,-2.228570936,0.8555716109,2.461392141
6.319014292,-0.8259675966,-2.055376409,0.8401291144,2.369095097
6.329029375,-0.9834126489,-1.829696104,0.8316483128,2.237527025
6.339044375,-1.078261357,-1.613592369,0.8315138268,2.111336812
6.349059375,-0.9911871068,-1.304782199,0.8783149409,1.859124956
6.359074375,-0.7759088525,-1.035771688,0.8256432223,1.535103992
6.369089375,-0.5345191258,-0.9582533956,0.5557030034,1.229945565
6.379104375,-0.3611414342,-1.00176779,0.1580186641,1.076536919
6.389119375,-0.2992397395,-1.0768437,-0.1345561266,1.125718494
6.399134375,-0.3833992991,-1.112908157,-0.2832063818,1.210688004
6.409149375,-0.6086260061,-1.068635963,-0.2749723327,1.26016595
6.419164375,-0.8815817803,-1.047608206,-0.105774377,1.373265309
6.429180375,-0.915606582,-0.9103728855,-0.288573541,1.323022635
6.439195375,-0.8725716595,-0.8366254628,-0.3175733918,1.249870523
6.449210375,-0.7502350442,-0.7976637107,-0.1422797137,1.104247949
6.459225375,-0.4903239696,-0.5079487932,-0.5414621097,0.8897251193
6.469240375,-0.2128662778,-0.1788528782,-1.034443785,1.071155614
6.479255375,-0.07782205492,0.02615985811,-1.507910378,1.510143807
6.489270375,-0.1263385959,-0.01700077951,-1.958349466,1.962494102
6.499285375,-0.5868771413,-0.3849303925,-2.148181661,2.259929343
6.509300375,-1.714845094,-0.8554330319,-1.840054446,2.656738552
6.519315375,-3.377177221,-1.261891703,-1.0756152,3.762265901
6.529330375,-4.717545283,-1.135436309,-0.7165879726,4.904890155
6.539345375,-5.023836472,-0.445773595,-0.6638729846,5.087079156
6.549361375,-4.403186105,0.6678420746,-0.7632662952,4.518477216
6.559376375,-2.827741556,1.499663465,-1.033570211,3.363536858
6.569391375,-0.7038680859,2.045579984,-1.522781017,2.645503691
6.579406375,1.054280464,2.698829162,-1.953809688,3.494647112
6.589421375,1.982965513,3.173835912,-1.840518715,4.170479081
6.599436375,2.120981291,3.070558881,-0.8616737652,3.83006203
6.609451375,1.823369855,2.600452098,1.107715244,3.36363818
6.619466375,1.370537648,1.990434893,3.118544641,3.945316867
6.629481375,1.049125559,1.402267563,4.423917993,4.757948
6.639496375,0.7952245447,0.729202171,5.452984679,5.558701268
6.649511375,1.272255016,0.5415650207,4.539191172,4.745121916
6.659526375,2.615004063,0.6959923249,3.257085645,4.23453167
6.669542375,3.76119808,0.7846478087,2.941293315,4.838748758
6.679557375,4.325119929,1.172722249,2.394170516,5.080747222
6.689572375,4.381082461,2.159415332,1.188037276,5.026767418
6.699587375,3.655596195,3.422670021,-0.08430807889,5.008508907
6.709602375,2.24210154,4.199444554,-0.8821203089,4.841537991
6.719617375,0.5899698798,4.353417529,-0.9765551805,4.500440941
6.729632375,-0.7953764261,3.96418534,-0.4680064631,4.07018662
6.739647375,-1.612438567,3.096958475,-0.007617747984,3.491585307
6.749662375,-1.976302611,1.939407996,0.3084967589,2.786080694
6.759677375,-2.300064257,0.7177714491,0.7916638827,2.53618279
6.769692375,-2.592854518,-0.5456422842,1.213505409,2.914312171
6.779708375,-2.485123955,-1.441468467,0.9027294052,3.011410432
6.789723375,-1.987733041,-2.054987569,0.4338072681,2.891754709
6.799738375,-1.400012292,-2.516505961,0.2332278907,2.889157649
6.809753375,-0.6949576601,-2.79231737,0.1855812693,2.883477562
6.819768375,0.1016941899,-2.970194348,0.2320233643,2.980978197
6.829783375,0.9706644031,-2.969806092,0.2087087613,3.131373015
6.839798375,1.893585852,-2.74205178,0.04472592811,3.332643958
6.849813375,2.635315829,-2.402910933,-0.1713532577,3.570466694
6.859828375,3.142438118,-1.993735061,-0.53846892,3.760298605
6.869843375,3.157004994,-1.665943075,-0.9462367827,3.692886528
6.879858375,2.739506487,-1.460410522,-1.069452235,3.283507693
6.889873375,2.283390191,-1.317185313,-0.986795994,2.814713884
6.899889375,1.871092344,-1.226099142,-0.7633616048,2.363689194
6.909904375,1.515860837,-1.255096069,-0.6571171117,2.074826045
6.919919375,1.314288749,-1.419992228,-0.814786697,2.099430924
6.929934375,1.04352378,-1.705542174,-1.102929883,2.28347768
6.939949375,0.7710350521,-2.073976986,-1.318186356,2.575556418
6.949964375,0.5049839625,-2.443089491,-1.548947892,2.936483379
6.959979375,0.383982705,-2.575492088,-1.863970728,3.202341189
6.969994375,0.3762304665,-2.409350472,-2.171965796,3.26557108
6.980009375,0.2332281831,-1.995603247,-2.410933313,3.138379701
6.990024375,-0.04985189885,-1.451963049,-2.512660248,2.902437498
7.000039375,-0.3649071872,-0.9305545503,-2.5670873,2.75481873
7.010055375,-0.6310592875,-0.4209088951,-2.23720552,2.362305793
7.020070375,-0.811241384,0.1257174754,-1.28017887,1.520781183
7.030085375,-0.7818956704,0.6394070649,-0.454781852,1.107713305
7.040100375,-0.6083633199,0.8821401894,0.2245758023,1.094856855
7.050115375,-0.1821948543,0.9839852375,0.4145482939,1.083176902
7.060130375,0.5616826585,1.248217989,0.3128459179,1.404068419
7.070145375,1.368075093,2.256279722,-0.1528860148,2.643066737
7.080160375,2.146118179,3.519395247,-1.200969051,4.293517533
7.090175375,2.243976011,3.785563427,-2.021770706,4.842878853
7.100190375,1.574297618,3.246908566,-2.565827225,4.427674059
7.110205375,0.6373555693,2.410199488,-2.767616392,3.724913984
7.120221375,-0.3820952238,1.42213991,-1.782947615,2.31244046
7.130236375,-1.319509728,0.8944813228,0.1215109793,1.598739402
7.140251375,-1.21212912,1.421289725,0.329110533,1.896743322
7.150266375,-0.418952563,3.025293245,-0.3088779974,3.069743652
7.160281375,0.06010104463,4.96023163,0.291963172,4.969180259
7.170296375,0.5903480485,5.813580129,2.086815133,6.204919189
7.180311375,1.090310422,4.960378395,3.458836219,6.14472771
7.190326375,1.377491741,2.714957537,2.753684231,4.105027986
7.200341375,0.8937230851,0.1927622348,2.38800755,2.557044836
7.210356375,-0.1360351798,-1.520673096,2.22811076,2.70100533
7.220371375,-1.02958241,-2.28491763,2.225571899,3.351724749
7.230387375,-1.696411747,-2.570180477,2.658759363,4.068493806
7.240402375,-2.151401723,-2.255172259,2.770118415,4.169878575
7.250417375,-2.182269759,-1.305128939,2.171266469,3.34365981
7.260432375,-1.644013093,-0.1937702948,1.348475518,2.135114095
7.270447375,-0.7524768667,0.2724422425,1.064036616,1.331397811
7.280462375,0.2536896372,0.2441955131,0.9601455545,1.022677548
7.290477375,1.397960212,0.3039183891,0.5785503408,1.543171941
7.300492375,2.448877796,0.4768193865,0.4113586378,2.52855198
7.310507375,3.035680239,0.6233880329,0.4800096639,3.135980936
7.320522375,3.154790653,0.5919171488,0.6848703361,3.282090394
7.33053675,2.914599021,0.4410268253,1.044119757,3.127231712
7.34055175,2.304076178,0.2508782959,1.269419993,2.642562028
7.35056775,1.568863654,-0.0407632792,1.266828507,2.016890993
7.36058275,0.9617437448,-0.4992200696,1.224762468,1.635302667
7.37059775,0.6360789759,-0.8363968366,1.281531916,1.657250791
7.38061275,0.4376842645,-1.102756805,1.250259837,1.723597908
7.39062775,0.2606554252,-1.325493622,1.128104485,1.759969978
7.40064275,0.1068015866,-1.550319064,0.9083906794,1.800019279
7.41065775,-0.1835186639,-1.769060478,0.697157675,1.910309634
7.42067275,-0.4342808926,-1.85947188,0.5434601033,1.985342401
7.43068775,-0.6761835663,-1.81011144,0.4480347498,1.983548027
7.44070275,-0.820522377,-1.679479964,0.4051337286,1.912601176
7.45071775,-0.9486937827,-1.557083123,0.4535989237,1.878903863
7.46073275,-1.069447264,-1.458266348,0.5073863276,1.878216994
7.47074875,-1.216647118,-1.395630389,0.450241489,1.905447924
7.48076375,-1.27883211,-1.386772442,0.2046596193,1.897481207
7.49077875,-1.313021657,-1.400281264,-0.1876499593,1.928736892
7.50079375,-1.393400846,-1.427753822,-0.4059101657,2.035880634
7.51080875,-1.404504854,-1.429760002,-0.5820376933,2.087011122
7.52082375,-1.357977682,-1.323310856,-0.7719552577,2.047234703
7.53083875,-1.347121742,-1.242840305,-0.7934461141,1.997234525
7.54085375,-1.309944852,-1.18432254,-0.7746356213,1.928376452
7.55086875,-1.131594834,-1.102648047,-0.9882004952,1.863566421
7.56088375,-1.026909063,-1.050290909,-0.9710050035,1.760824788
7.57089875,-0.8943015209,-0.8817297149,-0.8772320366,1.531913361
7.58091375,-0.6162323566,-0.546262089,-1.07210804,1.351872862
7.59092975,-0.4557112303,-0.3046019286,-1.213094934,1.331185329
7.60094475,-0.458915066,-0.2080176204,-1.486568041,1.569636553
7.61095975,-0.7648522063,-0.2260428321,-1.696959046,1.875037137
7.62097475,-1.613967906,-0.4985406232,-1.64211918,2.355841794
7.63098975,-2.482068492,-0.7523384339,-1.594084303,3.044303186
7.64100475,-3.105225853,-0.5939221591,-1.383550626,3.450997459
7.65101975,-3.19738148,-0.02416420341,-1.269538107,3.440284762
7.66103475,-2.689360181,0.6538426709,-1.514419498,3.154938167
7.67104975,-1.336109973,1.200360283,-2.00769295,2.693860733
7.68106475,0.3025201736,2.245293388,-2.483321843,3.361509814
7.69107975,1.253103192,3.169090896,-1.892256049,3.897953011
7.70109575,1.866147354,3.898981869,-0.1414687049,4.324879069
7.71111075,2.165148235,4.068635323,1.866407847,4.972437885
7.72112575,1.607784037,3.045332823,2.847244359,4.468313099
7.73114075,0.8909545746,2.249299316,3.664707327,4.391267159
7.74115575,0.3622962593,1.654076151,5.007537943,5.286081984
7.75117075,0.5250479521,1.244061204,4.891480068,5.074439958
7.76118575,2.031469044,1.236764463,3.215111407,3.999174187
7.77120075,3.649946908,1.190244015,2.346477116,4.499416418
7.78121575,4.523327091,1.348145151,1.564399159,4.972456943
7.79123075,4.400118949,1.92167456,0.282687149,4.809760067
7.80124575,3.430823963,2.571900728,-0.2588328481,4.295604831
7.81126175,1.959513062,3.033712066,-0.2401229274,3.619497115
7.82127675,0.4201062186,3.194814552,0.2898909187,3.235330895
7.83129175,-0.886043352,2.840980237,0.9024779749,3.109776202
7.84130675,-1.73866972,2.104784212,1.281119102,3.015684852
7.85132175,-2.189371349,1.345298141,1.452543093,2.951788514
7.86133675,-2.372844258,0.6235055619,1.3947995,2.822164897
7.87135175,-2.304181867,-0.1575391924,1.103825676,2.559785889
7.88136675,-1.976743784,-0.8722613186,0.5689785218,2.234299074
7.89138175,-1.519867642,-1.337083388,0.1857730579,2.032806253
7.90139675,-0.9552660531,-1.591112164,0.07930810651,1.857541635
7.91141175,-0.2558212397,-1.779973721,0.06130688667,1.799308058
7.92142775,0.4419926392,-1.941279105,0.08563130379,1.992800737
7.93144275,1.063826921,-1.971242577,0.03360395749,2.240235309
7.94145775,1.539269142,-1.844431672,-0.05010478179,2.402870819
7.95147275,1.770903812,-1.635963231,-0.2017102289,2.419331111
7.96148775,1.841425472,-1.460148566,-0.442127856,2.391308982
7.97150275,1.784468476,-1.368376517,-0.614769237,2.331249289
7.98151775,1.694072422,-1.336161282,-0.6882190365,2.264697283
7.99153275,1.563850105,-1.434448884,-0.7829152787,2.261907842
8.00154775,1.445069474,-1.585207645,-0.8228260338,2.297422849
8.01156275,1.353198607,-1.76928735,-0.7572612047,2.352651425
8.02157775,1.277939533,-1.94460851,-0.675237633,2.422927478
8.03159375,1.233180412,-2.06744857,-0.6815765995,2.501924096
8.04160875,1.153572618,-2.124382909,-0.9439101756,2.595129852
8.05162375,0.951228843,-2.184746055,-1.437147374,2.78268651
8.06163875,0.8290998039,-2.250113833,-1.857289699,3.033140909
8.07165375,0.712847655,-2.208050133,-2.145786642,3.160385654
8.08166875,0.5040130323,-1.981307974,-2.349490187,3.114436476
8.09168375,0.1779544535,-1.725974684,-2.515000888,3.055468191
8.10169875,-0.2168909164,-1.530483554,-2.510113785,2.947896334
8.11171375,-0.596443917,-1.368249047,-2.187729304,2.648397688
8.12172875,-0.8476400091,-1.089561394,-1.231271589,1.849774943
8.13174375,-0.7727468245,-0.5889666438,0.1091289246,0.9777159528
8.14175975,-0.2455516286,0.05590522885,0.8014234704,0.8400598644
8.15177475,0.3883247012,0.5849051678,1.048197606,1.261597539
8.16178975,0.8631753302,1.114233136,0.9854312539,1.719785419
8.17180475,1.137670384,1.753746035,0.3150608432,2.114044085
8.18181975,1.31006662,2.91305711,-0.5094620891,3.234459444
8.19183475,1.52172194,3.871808104,-1.276641304,4.351591511
8.20184975,1.066052663,3.623799037,-1.813605151,4.190173193
8.21186475,0.301584473,2.942567423,-1.412448151,3.277905736
8.22187975,-0.2912195523,2.765533029,0.2410573125,2.791252477
8.23189475,-0.8159273426,3.446572269,1.247012293,3.754948401
8.24191075,-1.083711839,4.450896462,0.8509335995,4.659291647
8.25192575,-1.753291268,5.823188859,1.573165305,6.281592778
8.26194075,-1.607071993,7.072892041,1.96808508,7.515440179
8.27195575,-0.8906483267,6.155055769,1.631805861,6.429677778
8.28197075,0.09955162391,2.958749592,1.112658407,3.162612592
8.29198575,0.1532623927,-0.2444674087,0.868547825,0.915220738
8.30200075,-0.3441131727,-2.120141339,0.3922335649,2.183405675
8.31201575,-0.7171896511,-3.010488095,0.2664329859,3.106185137
8.32203075,-1.153790865,-3.46294038,0.3984327098,3.671775873
8.332046167,-1.678451147,-3.505222766,0.9127632272,3.992107413
8.342061167,-1.908591269,-2.89231996,1.709570321,3.864047886
8.352077167,-1.420218662,-1.690466883,2.359397124,3.231323895
8.362092167,-0.4381421015,-0.5789755064,2.667947677,2.764982088
8.372107167,0.5656267516,0.3190328568,2.331500204,2.420249737
8.382122167,1.562866896,1.065621724,1.872583677,2.661704758
8.392137167,2.546798632,1.521642564,1.608640362,3.374804169
8.402152167,3.414111452,1.606335974,1.48207621,4.053766416
8.412167167,3.959367235,1.37724148,1.499956995,4.452331297
8.422182167,3.96397601,0.9214527744,1.646436764,4.390095106
8.432197167,3.489229169,0.3648668414,1.687250329,3.892898879
8.442212167,2.747813919,-0.2196816462,1.5628859,3.168809507
8.452228167,1.921143779,-0.8633519161,1.40105602,2.529649763
8.462243167,1.234251915,-1.359782279,1.220040257,2.204741224
8.472258167,0.8099348237,-1.626397771,1.068507324,2.107812143
8.482273167,0.4233691111,-1.751497781,0.8979475522,2.013279833
8.492288167,-0.0194617264,-1.772926072,0.6738775706,1.896775315
8.502303167,-0.4253019083,-1.712999128,0.632239548,1.874826545
8.512318167,-0.8529106893,-1.561776098,0.8080407643,1.95436207
8.522333167,-1.232015647,-1.339997056,0.9403176463,2.048817205
8.532348167,-1.440181787,-1.163615211,0.9434143317,2.078016973
8.542363167,-1.533095944,-1.093033471,0.8960904765,2.085205861
8.552379167,-1.468857556,-1.017794423,0.8422317731,1.975551155
8.562394167,-1.305269272,-0.9728229028,0.693085674,1.769316259
8.572409167,-1.115160504,-0.9254376519,0.5007520401,1.533222229
8.582424167,-0.9626640965,-0.8940878052,0.2437634587,1.336239421
8.592439167,-0.8904825582,-0.9300440884,0.04831557948,1.288516817
8.602454167,-0.8912162375,-0.932898699,-0.1322768819,1.296943923
8.612469167,-0.8475534703,-0.945043366,-0.3791077352,1.324830753
8.622484167,-0.9052365451,-1.009903606,-0.4994200444,1.445260833
8.632499167,-0.9835889424,-1.034583533,-0.5157349455,1.517825033
8.642514167,-1.011257967,-0.9396393692,-0.5014724171,1.468686285
8.652530167,-1.009550141,-0.7595047814,-0.4381774771,1.337175569
8.662545167,-0.9339329253,-0.5711624569,-0.5451873708,1.222982637
8.672560167,-0.6805764332,-0.3920324206,-0.8185540581,1.134418109
8.682575167,-0.3259021658,-0.3144030315,-1.03143013,1.126458877
8.692590167,-0.1446123143,-0.4535579932,-1.044776984,1.148123043
8.702605167,-0.1696734805,-0.5765588522,-1.166112556,1.311879451
8.712620167,-0.5321360931,-0.6932488114,-1.204741602,1.48834306
8.722635167,-1.177254864,-0.8238446188,-1.183867042,1.861770702
8.732650167,-1.887024399,-0.8689494556,-1.094953111,2.348373172
8.742665167,-2.446094375,-0.6519306314,-0.6405308998,2.611258523
8.752681167,-2.46029083,0.0410264039,-0.2296774248,2.471328763
8.762696167,-1.81995435,0.9998920029,-0.1833534801,2.084618995
8.772711167,-0.7109495026,1.972541243,-0.4202966917,2.138461471
8.782726167,0.4919455487,2.774699124,-0.555453912,2.872193361
8.792741167,1.395814576,3.391217263,-0.2011828101,3.67275474
8.802756167,1.96131649,3.815073155,0.213902843,4.295032011
8.812771167,2.076391886,3.481879511,0.4505408664,4.078955169
8.822786167,1.692635907,2.778758261,1.249365213,3.485315943
8.832801167,1.158193234,2.667644207,2.294233414,3.704219775
8.842817167,0.6614022437,2.281190615,3.287947834,4.05609227
8.852832167,0.8890697247,1.499909633,3.560048014,3.964103397
8.862847167,1.809925791,0.7655005163,2.558476106,3.226084685
8.872862167,3.022770756,-0.01597459316,1.834920591,3.536146463
8.882877167,3.923890423,-0.6627327776,1.350916146,4.202511775
8.892892167,4.130471967,-0.9038234192,0.7369140637,4.291938698
8.902907167,3.794920434,-0.6848650736,0.3315628552,3.870451549
8.912922167,2.87827144,-0.03894070208,0.1036500835,2.880400354
8.922937167,1.570517101,0.953915931,0.1924108171,1.847566369
8.932952167,0.2563743863,2.113915223,0.6544706619,2.227711212
8.942968167,-0.6060510385,2.931002215,1.113936682,3.193575861
8.952983167,-1.055519781,2.967551406,1.47266804,3.476957652
8.962998167,-1.210993153,2.421591033,1.668340434,3.180246429
8.973013167,-1.178298154,1.532887344,1.531393965,2.466434193
8.983028167,-0.9845813611,0.5769593865,1.079529326,1.570880694
8.993043167,-0.6770227879,-0.1569638264,0.6188926935,0.9306049991
9.003058167,-0.312764934,-0.7490283251,0.3650592148,0.8900188571
9.013073167,0.1502559006,-1.18626557,0.2297172407,1.217609481
9.023088167,0.6618577418,-1.469774253,0.2021674812,1.624550312
9.033103167,1.197531693,-1.527861078,0.1929253721,1.950810556
9.043119167,1.637582325,-1.493529736,0.1253198647,2.219912614
9.053134167,1.886591559,-1.407851654,-0.08242818992,2.355433802
9.063149167,1.965004475,-1.272091586,-0.3405944645,2.365473352
9.073164167,1.848056361,-1.091875137,-0.6035542774,2.229749177
9.083179167,1.668483106,-0.9305808628,-0.6892709506,2.030987706
9.093194167,1.493752953,-0.8473831701,-0.6900509691,1.850817782
9.103209167,1.39465098,-0.8700376225,-0.5992226601,1.749595558
9.113224167,1.527770884,-0.9207528627,-0.5582851338,1.869104599
9.123239167,1.818248864,-0.9962620515,-0.5692223507,2.150018858
9.133255167,2.131384073,-1.119444759,-0.6591191983,2.49607547
9.143270167,2.38037211,-1.232531079,-0.7676902986,2.78830641
9.153285167,2.448227732,-1.265632752,-0.8922956336,2.896866719
9.163300167,2.277921729,-1.288867832,-1.06616493,2.826095425
9.173315167,2.158425398,-1.231443497,-1.063599756,2.703053408
9.183330167,1.978102238,-1.215294072,-1.03696452,2.542660725
9.193345167,1.795487553,-1.334847413,-0.9885910892,2.445997856
9.203360167,1.656434041,-1.487963187,-0.9088151872,2.404943496
9.213375167,1.553708987,-1.438119181,-0.7728054428,2.253758339
9.223390167,1.536369069,-1.218519396,-0.4738560176,2.01736436
9.233406167,1.703202118,-0.8374347174,-0.01836551964,1.898033628
9.243421167,2.030417569,-0.3228347164,0.3634149778,2.087795058
9.253436167,2.368978079,0.06330195665,0.5813828051,2.44009636
9.263451167,2.632772875,0.4189167488,0.8041745853,2.784543233
9.273466167,2.874453208,0.7703373331,1.11808762,3.178996819
9.283481167,3.246957682,1.119141288,1.630078009,3.801626721
9.293496167,3.566755647,1.506788297,2.182777297,4.444847978
9.303511167,3.451582164,2.01550483,2.171261791,4.548632423
9.313526167,2.83330489,2.545105863,1.551735844,4.112549644
9.323542167,1.733443918,2.799235795,0.810330534,3.390749833
9.333557167,0.480890218,2.75063023,1.098314091,3.000585927
9.343572167,-0.5759413862,2.948605258,1.875476879,3.541665564
9.353587167,-0.5093611881,3.812706787,2.39330045,4.530349755
9.363602167,0.3207826361,4.800781567,1.746829948,5.118771339
9.373617167,1.013199389,4.813962945,1.605340194,5.174739547
9.383632167,1.490618407,3.624212435,2.52971833,4.664368536
9.393647167,1.224904556,2.143329642,2.635631286,3.611205533
9.403662167,0.5216757166,0.6557646507,2.38641126,2.529255134
9.413678167,-0.7894197214,-0.986560936,2.206610548,2.542757576
9.423693167,-1.989146166,-2.162231936,2.229660273,3.688269831
9.433708167,-2.129699197,-2.385286256,2.648235544,4.151910487
9.443723167,-1.243940751,-1.000005439,2.988711895,3.388185098
9.453738167,-0.1286460534,0.7692269468,2.389652957,2.513702679
9.463753167,1.038676877,2.267190042,1.159943744,2.750358127
9.473768167,2.28209781,3.773828065,0.1565346773,4.412964059
9.483783167,3.761420859,4.747725102,0.1197358469,6.058342776
9.493798167,5.014361644,4.752930293,0.8635612464,6.962751402
9.503814167,5.381584328,3.758873811,1.466719083,6.726205995
9.513829167,4.966857694,2.270901269,2.07046281,5.840674976
9.523844167,4.060129671,0.9008413392,2.778672892,5.001718815
9.533859167,3.053666567,0.1631519347,3.31630566,4.51102885
9.543874167,2.236177872,-0.3067624748,3.479902568,4.147808647
9.553889167,1.648295594,-0.7389763767,3.388917553,3.840276895
9.563904167,1.32986997,-1.009980204,2.982222655,3.417933018
9.573919167,1.145858094,-1.058909705,2.507261513,2.953073116
9.583934167,0.9548716584,-0.8772519171,2.246659298,2.593998614
9.593949167,0.8460096592,-0.5044626832,2.101630808,2.3210056
9.603965167,0.7438234261,-0.1090289372,1.960431075,2.099631062
9.613980167,0.6648091239,0.2886115479,1.771030405,1.913587336
9.623995167,0.4939488047,0.4354754788,1.663251017,1.788862281
9.634010167,0.306530925,0.365189023,1.516384163,1.589573893
9.644025167,0.07893741131,0.165515964,1.395634482,1.407630014
9.654040167,-0.1760394904,-0.07146759331,1.180107282,1.195303609
9.664055167,-0.4758902639,-0.1877997029,0.8160561275,0.9631655491
9.674070167,-0.7515829736,0.05575963318,0.3178476262,0.8179322811
9.684085167,-1.03457944,0.417740289,-0.09566747387,1.119827591
9.694101167,-1.227021248,0.6787681818,-0.2596491194,1.426087323
9.704116167,-1.170859618,0.7546749812,-0.2923596132,1.423348417
9.714131167,-0.9842179567,0.5752993619,-0.4702658272,1.23320894
9.724146167,-0.7738208118,0.1220968795,-0.7629236484,1.093507563
9.734161167,-0.6489359799,-0.4257176453,-0.9916433358,1.259249747
9.744176167,-0.4723220006,-0.8227278006,-1.110324272,1.460407168
9.754191167,-0.2488098434,-1.046573249,-1.336161282,1.715385926
9.764206167,-0.130751051,-1.088249863,-1.551109607,1.899295821
9.774221167,0.05915511131,-1.01189926,-1.690870925,1.971416731
9.784237167,0.325333524,-0.9253552061,-1.74094648,1.998253939
9.794252167,0.6261923575,-0.9190671104,-1.740540683,2.065498267
9.804267167,0.8316249239,-1.051221786,-1.64022936,2.118258627
9.814282167,0.7117701593,-1.239703274,-1.579721203,2.130492911
9.824297167,0.1854637402,-1.510432282,-1.613984717,2.218276165
9.834312167,-0.6889829752,-1.847813702,-1.352058692,2.391061631
9.844327167,-1.744124734,-2.089912988,-0.7871884239,2.833614829
9.854342167,-2.551689243,-1.952752512,-0.3532384837,3.232512612
9.864357167,-2.807240049,-1.304572284,-0.4032052803,3.121711075
9.874373167,-2.514076151,-0.5170277649,-0.5510977364,2.625186721
9.884388167,-1.902788931,0.2039836264,-0.6044132334,2.006870796
9.894403167,-1.072655632,0.7634113061,-0.652962665,1.469607828
9.904418167,-0.05493634522,1.168259654,-0.828331699,1.433172015
9.914433167,1.051446319,1.506614635,-0.9148337263,2.052400489
9.924448167,2.059840465,1.58639463,-0.520161836,2.651444701
9.934463167,2.948853472,1.392644801,0.1873880589,3.266544141
9.944478167,3.447198798,0.931825735,0.5022617547,3.606070663
9.954493167,3.656918251,0.3822792649,0.5004923872,3.710752102
9.964509167,3.510950406,-0.2685018039,1.088293133,3.68554581
9.974524167,2.995890229,-0.4411221349,1.501697127,3.38009486
9.984539167,2.51521782,-0.06488772154,0.3931077236,2.546579035
9.994554167,1.990404487,0.2734304219,-0.104961614,2.011837757
10.00456917,1.314117279,1.071123953,-0.2072346783,1.707968664
10.01458417,0.7187704459,2.146119348,-0.1292099442,2.266970318
10.02459917,0.4032839254,2.67570167,0.2792196771,2.720290606
10.03461417,0.184616771,2.541019244,0.7139772639,2.645869551
10.04462917,-0.031303069,2.358003733,1.001805797,2.562181949
10.05464517,-0.1476190987,2.257266147,0.8460576063,2.4151305
10.06466017,-0.3600823572,1.784960811,0.4916035596,1.886111996
10.07467517,-0.6786733107,1.054478685,0.2773194051,1.284300904
10.08469017,-0.9268178871,0.4537421805,0.0932023517,1.036127425
10.09470517,-1.075025216,0.1036085683,-0.2050413877,1.099297922
10.10472017,-1.01306081,-0.1391982311,-0.623765763,1.19781137
10.11473517,-0.7932818073,-0.2658898526,-0.8553915167,1.19653169
10.12475017,-0.3975501457,-0.4026152962,-1.0156789,1.162647334
10.13476517,0.0718970713,-0.5732721323,-1.149539135,1.286565331
10.14478117,0.4840371895,-0.6732946032,-1.409755508,1.635551349
10.15479617,0.7318016969,-0.6915344077,-1.742194276,2.012211335
10.16481117,0.9099442846,-0.5969089168,-1.976268259,2.256088448
10.17482617,1.07030242,-0.4408718741,-2.142733226,2.435409813
10.18484117,1.165563649,-0.4451304013,-2.236800308,2.561240971
10.19485617,1.304529161,-0.4915426755,-2.121635887,2.538651093
10.20487117,1.508233583,-0.4882489389,-2.052884325,2.593740469
10.21488617,1.650216989,-0.4989516824,-2.084049254,2.704705194
10.22490117,1.752071393,-0.5248577714,-2.070816566,2.762880941
10.23491717,1.728092546,-0.5946097916,-1.960093106,2.679893587
10.24493217,1.58438465,-0.7611425865,-1.98435145,2.650898608
10.25494717,1.292977256,-0.9124790525,-2.205703061,2.7146886
10.26496217,0.8758857152,-1.029962479,-2.468187495,2.814240218
10.27497717,0.5219908816,-1.118656554,-2.530287264,2.815354437
10.28499217,0.2863190009,-1.075331025,-2.444592226,2.685953561
10.29500717,0.01482707709,-0.8578765833,-2.639113888,2.775084537
10.30502217,-0.3224676575,-0.7529401124,-2.960963348,3.072166687
10.31503717,-0.6355249523,-0.7551287252,-2.95592948,3.116348897
10.32505317,-0.8734607287,-0.7236040467,-2.941718992,3.15281574
10.33506813,-1.056506938,-0.5053947294,-2.958825606,3.182181596
10.34508312,-1.049953963,-0.0516414392,-2.911869541,3.095812395
10.35509813,-0.6853040533,0.3814290798,-2.793334785,2.901352962
10.36511313,-0.09792025074,0.6646863323,-2.788838861,2.868626586
10.37512813,0.3465179864,0.7357054442,-3.041049153,3.147906791
10.38514313,0.4790131156,0.7180942154,-3.194142707,3.308724905
10.39515813,0.4011140236,0.6731601173,-3.241865342,3.335225315
10.40517313,0.338783728,0.5835310721,-3.334085289,3.40167718
10.41518913,0.3148095591,0.3507013768,-3.546519896,3.577694773
10.42520413,0.1527440371,-0.003161004782,-3.284944119,3.288494883
10.43521913,-0.07903359801,0.02654928267,-2.340869052,2.342353323
10.44523412,0.1601673697,0.9403995073,-1.553889374,1.823342262
10.45524913,0.3786117451,1.91677167,-1.574333578,2.509160558
10.46526412,-0.2071424384,2.694821481,-0.761773501,2.808072233
10.47527913,-0.4194184399,3.904695768,0.1626204228,3.930522392
10.48529412,-0.3079610078,4.014933325,1.013522447,4.152319513
10.49530913,-0.1834420654,2.611102801,2.145915281,3.384739461
10.50532513,-0.223172434,0.9568594193,2.539736364,2.723168501
10.51534012,-0.6597018734,-0.2687456328,2.119149212,2.235670853
10.52535513,-1.018343477,-0.9618891943,1.873495257,2.339281671
10.53537012,-1.291012883,-1.142191597,2.31751001,2.888281246
10.54538513,-1.503324699,-0.8087447691,2.200436473,2.784954924
10.55540012,-1.493397589,-0.085740062,1.456151994,2.087574273
10.56541513,-1.109430525,0.5884591055,0.6441462332,1.411398094
10.57543012,-0.463152397,0.7113599771,0.3020233065,0.900977934
10.58544612,0.2020327029,0.4637765872,0.4110949284,0.6518473564
10.59546113,0.6985754786,0.1979294193,0.3222873805,0.7943883874
10.60547612,0.9699218068,-0.1042909384,-0.02467236299,0.9758245931
10.61549113,1.07607713,-0.4003325433,-0.3902905716,1.21265612
10.62550612,1.105986369,-0.6532281286,-0.645898059,1.437740289
10.63552113,1.092130222,-0.8350829673,-0.6544525355,1.522635907
10.64553612,0.9350067665,-0.9703682417,-0.5995120607,1.474878601
10.65555113,0.6241841313,-1.024708756,-0.5418386704,1.316519278
10.66556612,0.2778159799,-0.9415326977,-0.4459946563,1.078228535
10.67558212,0.07286288515,-0.7982092559,-0.3609006385,0.8790314483
10.68559713,-0.05278223097,-0.671886009,-0.2286074209,0.711672766
10.69561212,-0.2280647993,-0.6375429726,0.001043179817,0.6771083243
10.70562713,-0.3779637274,-0.6640367067,0.2730848515,0.8114041306
10.71564212,-0.4765822819,-0.7812382972,0.371753692,0.9877574378
10.72565713,-0.5812196678,-0.9442370349,0.2334003836,1.133082353
10.73567212,-0.7040097347,-1.07187766,-0.04051886559,1.283040608
10.74568713,-0.8574361418,-1.158132277,-0.2412520248,1.461050871
10.75570212,-1.099415414,-1.243418595,-0.3755561729,1.701718688
10.76571812,-1.237845175,-1.221597955,-0.4912807568,1.807185387
10.77573313,-1.316260284,-1.098150369,-0.6324898088,1.827161385
10.78574812,-1.305940094,-0.852902357,-0.7845402199,1.745974031
10.79576313,-1.243796471,-0.6251714337,-0.8821600699,1.648051993
10.80577812,-1.100010222,-0.4962742424,-0.9454585183,1.533036993
10.81579313,-0.9344188289,-0.5339864445,-1.034153178,1.492565867
10.82580812,-0.8878613976,-0.6449964184,-0.9898049712,1.477847124
10.83582313,-1.026328727,-0.6794131297,-0.9773568338,1.571680386
10.84583913,-1.189739401,-0.5234503466,-1.152339513,1.737056839
10.85585412,-1.371617775,-0.3297975808,-1.170564626,1.833118465
10.86586913,-1.504764576,-0.1887124532,-1.043221552,1.840717258
10.87588412,-1.573764352,-0.03405301452,-1.154726858,1.952252023
10.88589913,-1.57506945,0.1872635132,-1.587500339,2.244118696
10.89591412,-1.490077101,0.2403462911,-1.880659266,2.411426006
10.90592913,-1.431452478,0.06094845235,-1.934140824,2.407004703
10.91594412,-1.425945425,-0.2798372161,-1.962910295,2.442262485
10.92595913,-1.528236615,-0.5993010128,-1.901262515,2.511865444
10.93597513,-1.75925572,-0.7435067993,-1.868371927,2.671815246
10.94599012,-2.230990222,-0.9081819338,-2.007490051,3.135622442
10.95600513,-2.719000302,-0.9813089669,-2.083811418,3.563453375
10.96602013,-3.137432609,-0.7410264105,-1.944509107,3.764800019
10.97603513,-3.277606448,-0.163800391,-1.997680762,3.841908774
10.98605013,-2.984970261,0.374803015,-2.195910729,3.72458705
10.99606513,-2.245011845,0.6787827998,-2.242568001,3.244986212
11.00608013,-1.35795824,0.8717110956,-2.331257399,2.835258696
11.01609512,-0.2708421519,1.288328719,-2.521731033,2.844692209
11.02611113,0.6235780674,1.804380584,-2.37493493,3.047122383
11.03612613,1.003710527,2.03415277,-1.267654134,2.598491739
11.04614112,1.155655104,2.190933579,0.9593035555,2.656311724
11.05615613,1.464294973,1.942619871,2.976657275,3.844271097
11.06617112,1.873433423,1.350523798,3.402360302,4.112143352
11.07618613,2.036904908,0.6883763266,3.350439951,3.980991263
11.08620112,2.367301536,0.1992924052,2.739746808,3.626299298
11.09621613,3.002420984,0.008818185925,2.226433779,3.737862611
11.10623213,4.028117042,0.3474883318,2.339238848,4.671029162
11.11624712,4.564429801,1.37889098,1.719400075,5.068697699
11.12626213,4.14309289,2.6722255,0.4835202956,4.953766213
11.13627712,2.91391285,3.584021598,-0.2393411547,4.625298164
11.14629213,1.310508231,4.094433239,-0.3224441224,4.311123471
11.15630712,-0.1024131051,4.259258646,-0.3098696121,4.271743419
11.16632213,-0.9826305838,3.833902944,-0.1774606196,3.961800969
11.17633712,-1.37766555,2.888512253,-0.04734548986,3.200579166
11.18635213,-1.604442207,1.681617122,0.2484587546,2.337477849
11.19636813,-1.817628766,0.3803648865,0.6809702432,1.977921195
11.20638312,-1.817102663,-0.6076403117,0.8211209857,2.084545157
11.21639813,-1.5809364,-1.202951185,0.3020267783,2.009395837
11.22641312,-1.197570869,-1.716025647,-0.1150276323,2.095746016
11.23642813,-0.744611046,-2.165499945,-0.3607240891,2.318179779
11.24644312,-0.2500316191,-2.533481598,-0.4972595348,2.593898969
11.25645813,0.3498566003,-2.706959715,-0.5044650952,2.775700916
11.26647312,1.065714548,-2.608755729,-0.4404801472,2.852258177
11.27648813,1.712489982,-2.26682576,-0.5391408382,2.891676643
11.28650413,1.978463303,-1.82214384,-0.7085943172,2.781480024
11.29651912,2.032582354,-1.353031669,-0.9050818131,2.604085024
11.30653413,1.933024883,-0.9964316207,-1.090676531,2.432906999
11.31654912,1.688390098,-0.8362214202,-1.269033492,2.271645525
11.32656413,1.387580381,-0.8373832619,-1.417245791,2.152945813
11.33657863,1.164706886,-0.9291056103,-1.521858911,2.129749729
11.34659362,1.078867714,-1.139122394,-1.574517181,2.222759484
11.35660863,1.064435616,-1.433518592,-1.475106329,2.316017577
11.36662463,0.9982850419,-1.721256566,-1.464811136,2.470823518
11.37663962,0.8505155236,-1.858456219,-1.7075045,2.663232583
11.38665463,0.6366223285,-1.817778309,-2.249061334,2.961061103
11.39666962,0.4277214861,-1.660908038,-2.655356283,3.161088131
11.40668463,0.1679910904,-1.43711463,-2.753187218,3.110234609
11.41669962,-0.2374902186,-1.074787234,-2.713488132,2.928239581
11.42671463,-0.6389749557,-0.6004540837,-2.52256777,2.670614584
11.43672962,-0.8473461865,-0.2053834498,-2.276353798,2.437614517
11.44674463,-0.9305732614,0.09723217964,-1.975487071,2.185856779
11.45676063,-0.804900371,0.2556396836,-1.497223422,1.718980579
11.46677562,-0.4128286278,0.1921032536,-0.8474230043,0.9620066965
11.47679063,0.1723333789,-0.004457332492,-0.3515247378,0.3915205009
11.48680562,0.6624358852,0.08637506962,-0.3132833628,0.7378539287
11.49682063,0.933950467,0.7452019072,-0.5834773508,1.329674838
11.50683562,1.118977566,2.00963598,-0.9575938296,2.491532361
11.51685063,1.58073321,3.044083273,-1.589210064,3.780310712
11.52686562,1.692180117,2.886423043,-2.44345845,4.143114858
11.53688162,0.8980870083,1.955243425,-3.114070936,3.785099063
11.54689663,-0.4159468018,0.9179608172,-3.207641004,3.362235063
11.55691162,-1.809065373,0.03493185103,-1.747860813,2.515741477
11.56692663,-2.263668848,-0.1568772876,0.264154399,2.284422177
11.57694162,-1.433978914,1.638141904,0.7015319771,2.287345959
11.58695663,-1.651647803,4.817016946,1.083693713,5.206340825
11.59697162,-2.213583646,7.719137424,1.608400626,8.18974894
11.60698663,-1.770994444,8.191935681,2.684347363,8.800565452
11.61700162,-0.3607074246,4.982979637,3.360340456,6.020970345
11.62701762,0.09051899135,1.09809599,3.110987699,3.300341339
11.63703263,-0.3830755095,-1.221132517,2.521320559,2.827537591
11.64704762,-1.043592777,-2.595581952,2.170769455,3.540956309
11.65706263,-1.816521742,-3.39696683,1.710208837,4.214730021
11.66707762,-2.304153069,-3.439281961,1.169143753,4.301706509
11.67709263,-2.398993153,-2.847407497,0.5068693972,3.757634121
11.68710762,-1.774322972,-1.810810182,0.2111219072,2.54397877
11.69712263,-0.7894355088,-0.9670394218,0.393176136,1.308801413
11.70713762,0.1839680225,-0.4131578261,0.5437419025,0.707247396
11.71715362,1.132028844,0.1229558355,0.4921250582,1.240481565
11.72716863,1.947720398,0.6256403804,0.5778218508,2.125774853
11.73718362,2.515501702,0.941067844,0.7236777216,2.781558366
11.74719863,2.807911601,1.027508987,0.932858938,3.132150711
11.75721362,2.844354665,0.9967216426,1.160660613,3.229696666
11.76722863,2.659291459,0.7419806761,1.159555489,2.994484149
11.77724362,2.173754605,0.07717272162,1.086278182,2.431288753
11.78725863,1.472127757,-0.8232517111,1.109211547,2.018725778
11.79727362,0.8182084876,-1.563855953,1.147097411,2.104980532
11.80728962,0.3345721248,-2.0037759,1.081572343,2.301489756
11.81730463,-0.1233440906,-2.228925862,0.8466616237,2.387500821
11.82731962,-0.5612354927,-2.248026377,0.6437193865,2.404783258
11.83733463,-1.011098923,-2.135111965,0.4159171271,2.398752007
11.84734963,-1.349715713,-1.905309373,0.2918871582,2.353111647
11.85736463,-1.630941204,-1.693829032,0.3838609368,2.382514474
11.86737963,-1.833212181,-1.461133822,0.5086048508,2.398803419
11.87739463,-1.892176088,-1.218634002,0.5655930205,2.320623762
11.88741063,-1.811924661,-1.031003283,0.446668219,2.132029842
11.89742563,-1.645243932,-0.9527523351,0.2134964615,1.913150634
11.90744063,-1.523602843,-0.9399030787,-0.1097458059,1.793551661
11.91745563,-1.365614438,-1.04410397,-0.362721498,1.756878704
11.92747062,-1.30355443,-1.218029984,-0.5105163056,1.855661093
11.93748563,-1.413699747,-1.305647587,-0.537584821,1.998064072
11.94750062,-1.671161569,-1.221912535,-0.4451777637,2.11755389
11.95751563,-1.817505098,-0.9452339852,-0.4527452667,2.098039643
11.96753062,-1.867262564,-0.6418143636,-0.4815334117,2.032355674
11.97754662,-1.777798411,-0.385851329,-0.4614651464,1.876805402
11.98756163,-1.611824609,-0.131695084,-0.6300421643,1.735590763
11.99757662,-1.383649736,0.1137037861,-1.243580562,1.863842203
12.00759163,-1.155601455,0.1664912796,-1.850680007,2.188184306
12.01760662,-1.083781421,-0.07429939985,-2.213637148,2.465824809
12.02762163,-1.224957034,-0.4292405927,-2.30633832,2.646500268
12.03763662,-1.52665392,-0.7463269114,-2.360366592,2.908437123
12.04765163,-2.027358159,-0.9393891084,-2.365408646,3.253888607
12.05766662,-2.734232883,-0.8976089984,-1.925175873,3.462373971
12.06768262,-3.446168227,-0.7075604564,-1.045026076,3.669985932
12.07769763,-3.65487231,-0.2647934997,-0.4046805328,3.686729382
12.08771262,-3.014180612,0.5057853234,-0.341249974,3.075313821
12.09772763,-1.891442116,1.253774598,-0.8362436396,2.418430782
12.10774262,-0.5672902114,2.184111632,-1.520634504,2.721119457
12.11775763,0.380002213,2.989862042,-1.041623581,3.188833078
12.12777262,0.8023897228,3.697550552,0.3613602662,3.80082762
12.13778763,0.8607993141,3.909909731,1.882086571,4.423869282
12.14780262,0.6626745978,2.463871665,2.6921341,3.709095202
12.15781862,0.7134453866,0.7724282974,3.322646965,3.485058486
12.16783363,0.728970475,-0.01419587016,4.037601811,4.102904807
12.17784862,1.215061938,-0.1717233682,3.382734708,3.598438346
12.18786363,2.273682205,-0.03360979557,2.684928576,3.518465837
12.19787862,3.319276046,0.2965924126,1.678062599,3.731146555
12.20789363,3.869895187,0.9332010001,0.6310280049,4.030527163
12.21790862,3.489662156,1.853691323,0.2494498577,3.959310383
12.22792363,2.341680207,2.988213127,-0.2089864675,3.802178222
12.23793963,0.8752452989,3.855470983,-0.1572017715,3.956693472
12.24795462,-0.5115992099,4.076251906,0.2589223105,4.116382407
12.25796963,-1.591824501,3.571800333,0.5424339169,3.947897847
12.26798462,-2.446624133,2.536972386,0.5727166468,3.570742625
12.27799963,-3.138229877,1.326926774,0.5983654583,3.459373158
12.28801462,-3.499146924,0.175659129,0.6774168903,3.568442093
12.29802963,-3.403808658,-0.6918875796,0.44151039,3.50136448
12.30804462,-2.906110033,-1.25797056,0.0496557202,3.167085592
12.31805963,-2.311486355,-1.70343016,-0.2267994618,2.880291908
12.32807563,-1.629300621,-2.049538549,-0.4242675358,2.652401123
12.33809075,-0.8128252485,-2.338862872,-0.4596700877,2.518384603
12.34810575,0.1695870879,-2.484807621,-0.4081467623,2.523809119
12.35812075,1.071855586,-2.508076031,-0.2894751452,2.742829859
12.36813575,1.700522778,-2.474579671,-0.1842832239,3.008202549
12.37815075,1.937791679,-2.346262524,-0.06076196272,3.043628827
12.38816575,1.976910283,-2.083486898,-0.1373762387,2.87540678
12.39818075,1.916048662,-1.719981288,-0.3258805311,2.595337401
12.40819575,1.687453666,-1.366274443,-0.3724465871,2.202934903
12.41821175,1.48134063,-1.090108693,-0.3623443891,1.874566745
12.42822675,1.234647771,-0.9436300939,-0.4731625378,1.624400092
12.43824175,0.9336329632,-0.9680773026,-0.6028795453,1.473875137
12.44825675,0.5847851537,-1.214956688,-0.8124255183,1.574207309
12.45827175,0.2765987357,-1.586770606,-1.075940817,1.937007088
12.46828675,-0.03436876416,-1.936244652,-1.361242914,2.367109384
12.47830175,-0.2890992057,-2.160146819,-1.649443402,2.733217182
12.48831675,-0.4787998384,-2.237100855,-2.012064328,3.046682192
12.49833175,-0.6656066841,-2.1472502,-2.209846398,3.152322442
12.50834775,-0.8546614918,-1.838931196,-2.251607212,3.030156637
12.51836275,-1.088154554,-1.424747184,-2.136640427,2.789124806
12.52837775,-1.331617265,-0.8216513282,-1.710447403,2.31817725
12.53839275,-1.476212768,0.003028857708,-1.007402825,1.78719718
12.54840775,-1.270462552,0.8317366058,-0.1144990075,1.522816765
12.55842275,-0.5602705559,1.280790489,0.3966786182,1.453162516
12.56843775,0.3900187857,1.306086128,-0.1355817648,1.369802191
12.57845275,1.265157519,1.003039559,-0.739395622,1.775786527
12.58846875,1.546977526,1.027520097,-0.4318560523,1.906682109
12.59848375,1.471816831,1.926475124,-0.1139832465,2.427044163
12.60849875,1.016550428,2.870799868,-1.187646682,3.268848619
12.61851375,0.3888215683,2.278634212,-0.7968725824,2.445068915
12.62852875,-0.156307915,1.339192479,1.578083398,2.075624212
12.63854375,-0.3397039336,2.226786366,2.526702336,3.384996452
12.64855875,-0.4613211952,3.555042797,2.106149536,4.157765314
12.65857375,-1.219458459,5.926672297,3.150472777,6.821876733
12.66858875,-3.080853488,9.044636893,1.866452286,9.735541017
12.67860475,-3.630352011,7.932171371,-0.520383482,8.73897004
12.68861975,-2.595378469,2.64514646,1.014814682,3.842217853
12.69863475,-2.140685677,-2.140946901,1.201396995,3.257229427
12.70864975,-1.866142384,-4.88844127,0.566321547,5.263085173
12.71866475,-1.967395255,-6.020145886,0.5559801614,6.357823096
12.72867975,-2.082715212,-5.425457742,0.8983462592,5.88050341
12.73869475,-2.098604874,-3.474258251,0.6288318638,4.107315708
12.74870975,-1.621058532,-1.616493757,0.6877658772,2.39037753
12.75872575,-0.27992624,-0.336523633,1.182604043,1.261015138
12.76874075,1.035835861,0.8257806319,1.599434506,2.076790871
12.77875575,1.982260193,2.059168328,1.772385789,3.363165334
12.78877075,2.618032336,2.839116729,1.752506425,4.24098525
12.79878575,2.902265489,2.873170913,1.649377913,4.404395937
12.80880075,3.01363799,2.256690196,1.599574839,4.090636166
12.81881575,2.947867339,1.230029055,1.483575436,3.521915587
12.82883075,2.788741212,-0.1156643575,1.139704192,3.014860103
12.83884575,2.449511488,-1.702839591,0.7688538945,3.080731328
12.84886175,1.936233396,-3.160879067,0.512373966,3.742015943
12.85887675,1.248164926,-3.981208924,0.3048083353,4.183401523
12.86889175,0.4695767328,-4.06789565,0.2470132864,4.102352117
12.87890675,-0.5351517946,-3.647232338,0.2744659821,3.696487894
12.88892175,-1.515467612,-2.938483143,0.4524458528,3.33706945
12.89893675,-2.152009541,-2.158765706,0.6918542504,3.125712198
12.90895175,-2.488670291,-1.464022347,0.8139031827,2.999879938
12.91896675,-2.445392856,-0.9452181977,0.7922883654,2.738814436
12.92898175,-2.076403435,-0.6006376863,0.5767015243,2.237141368
12.93899775,-1.620196653,-0.4809118527,0.3128418249,1.71877381
12.94901275,-1.116867452,-0.6363670975,0.07196519136,1.287452903
12.95902775,-0.7612485673,-0.9496574038,-0.17032296,1.228966426
12.96904275,-0.6184714016,-1.273604845,-0.3106976509,1.449520337
12.97905775,-0.6970112023,-1.622884179,-0.4748096985,1.82894011
12.98907275,-1.030710192,-1.867572028,-0.6826694441,2.23969336
12.99908775,-1.444142106,-1.839128247,-0.7296939218,2.44956983
13.00910275,-1.853488863,-1.561346328,-0.6004727948,2.496756075
13.01911775,-2.027019605,-1.166263999,-0.4099781102,2.374249828
13.02913375,-1.900110468,-0.7396406204,-0.2127936262,2.050065649
13.03914875,-1.520337612,-0.3871423942,-0.3728716797,1.612556658
13.04916375,-0.8772772063,-0.102468946,-0.9603040141,1.304721802
13.05917875,-0.1288238087,-0.04554864049,-1.651058403,1.656702781
13.06919375,0.4146789792,-0.277769056,-2.171860546,2.22847314
13.07920875,0.4806943363,-0.4942382419,-2.539739873,2.631656723
13.08922375,-0.09113455698,-0.5691960382,-2.525656854,2.590604598
13.09923875,-1.125334367,-0.4317163038,-2.558010083,2.82775034
13.10925375,-2.328489034,-0.3152584791,-2.707500583,3.58494191
13.11926975,-3.523588285,-0.3635401082,-2.576897759,4.380438092
13.12928475,-4.522477491,-0.460795092,-2.104110028,5.009232853
13.13929975,-4.827924927,-0.2982267094,-1.826645027,5.17053482
13.14931475,-4.165838851,0.101635133,-1.682553261,4.493943537
13.15932975,-2.56959751,0.487326833,-1.473753283,3.002043895
13.16934475,-0.3489353715,1.423388291,-1.51581172,2.10842958
13.17935975,1.225246033,2.49868014,-0.8488905823,2.909509495
13.18937475,1.707070636,3.033297499,1.352506004,3.7342009
13.19939075,1.932658263,3.20159206,3.977695332,5.459617187
13.20940575,2.096832875,2.517868363,5.157541829,6.110368803
13.21942075,2.635111468,1.790578816,5.035249068,5.958499653
13.22943575,3.179755048,1.585809909,4.807971888,5.978480485
13.23945075,3.486447941,1.776970006,3.8183283,5.46741005
13.24946575,3.972578434,2.497235878,2.31973546,5.234380483
13.25948075,4.436573707,3.899756625,0.1331714694,5.908385789
13.26949575,4.240258411,5.137843144,-0.6884207654,6.697099874
13.27951075,3.181834903,5.516275526,-0.6682478714,6.403118322
13.28952675,1.649061287,5.389824809,-0.7768353438,5.689735297
13.29954175,0.2429962492,4.709113013,-0.6212783575,4.756130712
13.30955675,-0.9563843331,3.377120211,0.1530327433,3.513264996
13.31957175,-1.946285783,1.740406782,0.8489864767,2.745509453
13.32958675,-2.5640792,0.3590067619,1.269487821,2.883571974
13.33960175,-2.658212063,-0.199964835,1.31508207,2.972459951
13.34961675,-2.61606124,-0.524197036,1.386898157,3.006999408
13.35963175,-2.529000877,-1.101399082,0.9705138373,2.924178941
13.36964775,-1.911877258,-1.545893891,0.3726822299,2.486755842
13.37966275,-1.161873325,-2.088010889,0.03329813898,2.389738032
13.38967775,-0.3947899675,-2.639447764,-0.3158876395,2.687439044
13.39969275,0.432842039,-2.960656369,-0.5513889277,3.042510167
13.40970775,1.160284637,-3.072778484,-0.6982856029,3.357950391
13.41972275,1.654177016,-2.98095264,-0.9531826901,3.539906422
13.42973775,1.909598452,-2.6635839,-1.356687933,3.547090017
13.43975275,2.005658703,-2.324495679,-1.648987904,3.484983228
13.44976775,1.811464924,-2.081410552,-1.682697102,3.231894892
13.45978375,1.344576595,-1.882361391,-1.542603078,2.7804307
13.46979875,0.9374646436,-1.762237946,-1.372578911,2.422456481
13.47981375,0.5839295599,-1.686348104,-1.24017339,2.173194353
13.48982875,0.2628422838,-1.691728127,-1.219326824,2.101853474
13.49984375,0.1474125458,-1.752628047,-1.354368342,2.219853405
13.50985875,0.2050115669,-1.928484812,-1.520216428,2.464171545
13.51987375,0.3508534044,-2.108410655,-1.778797261,2.780757684
13.52988875,0.439132766,-2.145386692,-2.232340636,3.1271179
13.53990375,0.4235158762,-2.070807796,-2.701272714,3.429939489
13.54991975,0.3327947174,-1.936047601,-2.904652907,3.506571138
13.55993475,0.04566383064,-1.671025475,-2.925475427,3.369394278
13.56994975,-0.3181214221,-1.32778573,-2.854206639,3.163970879
13.57996475,-0.6327329068,-0.9556139624,-2.326700664,2.59366246
13.58997975,-0.7470952356,-0.5178884751,-1.238891096,1.536623217
13.59999475,-0.6760574126,-0.2876040727,-0.2365409231,0.7718298621
13.61000975,-0.2329872778,-0.0660688591,0.2875900394,0.3759736646
13.62002475,0.2978940028,0.6689109457,0.05014806032,0.7339601611
13.63004075,0.693837626,2.351327966,-0.410686208,2.485722635
13.64005575,1.476752905,4.587972738,-0.9048524561,4.903983172
13.65007075,2.099071628,5.518085824,-1.955974327,6.219421872
13.66008575,1.560960704,4.950576707,-3.047758833,6.019438674
13.67010075,0.4406517264,3.53876298,-3.809265116,5.217999434
13.68011575,-0.8974483462,1.138776239,-3.458363764,3.750000638
13.69013075,-2.233175472,-1.337140106,-0.8145896459,2.72737468
13.70014575,-1.486023957,-1.029587088,1.671837069,2.462388263
13.71016075,-0.5046351761,2.760676916,2.39423425,3.688949897
13.72017575,-1.575831927,7.330674144,2.902076624,8.040154128
13.73019175,-1.757449808,9.89307724,4.391040269,10.96552971
13.74020675,-1.213579668,7.34104652,5.602274619,9.313926161
13.75022175,-0.9089713079,2.609346882,5.016615161,5.72724608
13.76023675,-1.277767186,-0.7199612314,3.833925748,4.104877562
13.77025175,-2.284572644,-2.870115159,3.144075923,4.83136074
13.78026675,-3.052030516,-3.59931616,2.473863387,5.328223639
13.79028175,-3.000751897,-2.871354184,1.275657803,4.344708232
13.80029675,-2.715180316,-1.822164305,0.3966657543,3.293908108
13.81031275,-1.806201991,-1.045817789,0.1393204379,2.091772135
13.82032775,-0.4395335926,-0.6851048094,0.1627537759,0.8300886522
13.83034275,0.9295061445,-0.3741428643,0.05313602407,1.003388256
13.84035775,2.109322382,0.292485913,-0.2031369313,2.139171226
13.85037275,2.806334315,0.9956399077,-0.3254946148,2.995456202
13.86038775,2.916544974,1.286314938,-0.03664566537,3.187818002
13.87040275,2.811196567,1.060807126,0.6437176323,3.072866787
13.88041775,2.548323585,0.5902460146,1.321466644,2.930634325
13.89043275,2.220182667,-0.06175069034,1.45691798,2.656244383
13.90044875,1.75332562,-1.027486183,1.503158931,2.527719399
13.91046375,1.25188317,-1.971868814,1.735502138,2.909887585
13.92047875,0.8740914971,-2.570174046,1.665619724,3.184983459
13.93049375,0.546193969,-2.910764417,1.232600661,3.207831313
13.94050875,0.1536513788,-3.122061156,0.9153810257,3.257114832
13.95052375,-0.2789689046,-3.156035818,0.6168789124,3.227836013
13.96053875,-0.6697779416,-2.995468937,0.3836732411,3.09332213
13.97055375,-1.130324381,-2.731001712,0.4674509776,2.992409393
13.98056875,-1.623348741,-2.372841042,0.5101473463,2.919911995
13.99058375,-1.879758941,-1.881330526,0.5002205282,2.706126162
14.00059975,-1.870450905,-1.39160575,0.4156183344,2.368098763
14.01061475,-1.705283581,-1.038916905,0.1656066324,2.003688095
14.02062975,-1.451471006,-0.9021400058,-0.05636955259,1.709912921
14.03064475,-1.03276695,-1.009211295,-0.0901775505,1.446805793
14.04065975,-0.6995458241,-1.221498553,-0.08715157986,1.410325662
14.05067475,-0.6932109506,-1.284232745,-0.09016176302,1.462164255
14.06068975,-0.7901737198,-1.101743483,-0.2002975416,1.370522643
14.07070475,-0.9107203563,-0.8764134264,-0.316316277,1.302907536
14.08071975,-1.109294139,-0.7737544459,-0.3078769175,1.387089624
14.09073575,-1.198170355,-0.5976129216,-0.5458866612,1.445941095
14.10075075,-1.146914247,-0.3286831015,-1.411030201,1.847823341
14.11076575,-0.9602338475,-0.2553853297,-2.31962027,2.523471598
14.12078075,-0.7578209294,-0.4093384248,-2.832647955,2.960700077
14.13079575,-1.113248757,-0.5937514204,-3.122652894,3.36791102
14.14081075,-2.279338363,-0.8163367939,-2.811923084,3.71061997
14.15082575,-3.949709389,-1.189230108,-1.875571604,4.531251631
14.16084075,-5.330511239,-1.473866134,-0.9968181217,5.619633246
14.17085575,-6.008653768,-1.031795581,-0.7464268988,6.142123032
14.18087075,-5.704526634,0.2268322062,-0.7333840996,5.75594729
14.19088675,-4.347455124,1.255933975,-0.8872056323,4.611384828
14.20090175,-2.087875233,2.205106645,-1.681572683,3.471225287
14.21091675,0.2294117054,3.426785291,-1.399051595,3.708481162
14.22093175,1.376534698,3.997617381,0.5230942512,4.260213621
14.23094675,1.639332543,3.928939494,2.230895205,4.806336458
14.24096175,1.639257991,3.039469235,3.154283407,4.677076416
14.25097675,1.591092283,2.02388389,4.020124483,4.773791105
14.26099175,1.408322501,1.117073128,5.024955044,5.33679659
14.27100675,1.791997643,0.737446745,3.78080087,4.248474841
14.28102175,2.82934954,0.8216437268,2.700793827,3.996824306
14.29103775,4.118232576,1.318024973,2.205865613,4.854160327
14.30105275,4.974782426,2.143979267,1.389734641,5.592536961
14.31106775,4.902630708,3.080333671,0.9587936783,5.868860937
14.32108275,3.85497397,4.065895903,0.2809844398,5.609927455
14.33109775,2.120886713,4.766354915,0.1343929893,5.218655105
14.34111313,0.3995867309,4.715453149,0.4080040902,4.749908977
14.35112812,-1.030691919,3.772508349,0.8946123004,4.011792148
14.36114313,-2.019726812,2.37272936,1.004525921,3.273868253
14.37115812,-2.682181554,1.052874793,0.8612843406,3.007399863
14.38117313,-3.191613786,-0.02809060872,0.7733609283,3.284094208
14.39118913,-3.286074093,-0.9384126234,0.5166564667,3.456274744
14.40120412,-2.933715616,-1.634141239,0.1561686051,3.361769405
14.41121913,-2.306633897,-2.026423336,-0.1715152073,3.075120963
14.42123412,-1.595006994,-2.286263659,-0.4424248946,2.82255002
14.43124913,-0.8562455025,-2.591898206,-0.5681704366,2.788173294
14.44126412,-0.04702681661,-2.823908706,-0.536711247,2.874844494
14.45127913,0.8244626695,-2.859952698,-0.4930875099,3.016985817
14.46129412,1.524597308,-2.77891906,-0.5128452516,3.21088747
14.47130913,1.76657161,-2.61218629,-0.5610298169,3.202974699
14.48132412,1.749748732,-2.368055096,-0.6637537014,3.018256871
14.49134012,1.719469803,-2.108553327,-0.8853087956,2.861178988
14.50135513,1.562935455,-1.987822942,-0.9906218272,2.715794338
14.51137012,1.372815138,-2.005804299,-0.8548009479,2.576539724
14.52138513,1.255039351,-2.038221847,-0.6428013736,2.47844017
14.53140013,1.110920396,-2.068834945,-0.6939938197,2.448642395
14.54141513,0.9439370728,-2.060331339,-0.902290864,2.439284983
14.55143013,0.7982686052,-2.085745093,-1.234980478,2.552007472
14.56144513,0.6681319503,-2.152869374,-1.709512433,2.829077518
14.57146013,0.5592288744,-2.256741652,-2.399320158,3.34101138
14.58147512,0.3021617393,-2.351028589,-2.824167738,3.687080221
14.59149113,-0.07612431586,-2.253650814,-2.762021776,3.565599696
14.60150613,-0.3731827515,-2.016523415,-2.473049455,3.21272558
14.61152112,-0.6449174809,-1.702425023,-2.168159258,2.831092384
14.62153613,-0.907863699,-1.233787061,-1.541469303,2.17314855
14.63155112,-0.8598336464,-0.3154993844,-0.5584446897,1.07271349
14.64156613,-0.4934020901,0.7712752265,0.06327557109,0.9177771491
14.65158112,0.02192208856,1.270853146,0.4968993098,1.364718733
14.66159613,0.4961431186,1.189104978,0.7796178876,1.505965701
14.67161112,0.7853010888,1.305088009,0.679878495,1.667988992
14.68162613,0.6952240008,2.243238677,-0.2229823264,2.359062799
14.69164112,0.8459489943,3.80926687,-1.574710724,4.207832893
14.70165712,1.158373182,4.197923108,-2.445699688,4.994580445
14.71167213,0.8095223026,3.30859903,-2.621255906,4.298038672
14.72168712,0.1058943911,2.427517771,-2.55818316,3.528222957
14.73170213,-0.6682870477,1.626540443,-0.8960401905,1.973608222
14.74171712,-0.7016012666,1.354905117,1.262206868,1.980196553
14.75173213,0.1639857477,3.07547405,2.123941444,3.741197564
14.76174712,-0.3540775591,6.374200056,3.439214133,7.251481995
14.77176213,-1.324244072,9.641392028,3.107828448,10.21609809
14.78177712,-1.265542997,8.613324632,2.241165254,8.989648602
14.79179213,0.2341533588,3.118638781,3.509758451,4.700972242
14.80180712,0.4360085987,-1.433542566,3.731815821,4.021392434
14.81182312,-0.009695414454,-3.650247163,2.682709558,4.530047342
14.82183813,-1.000791597,-4.655512757,2.095602329,5.202588968
14.83185312,-1.537648586,-3.946747189,1.407896093,4.463557769
14.84186813,-1.833337604,-2.210257457,0.6350684309,2.941033272
14.85188312,-1.761503098,-0.6000588119,0.3258606871,1.889219132
14.86189813,-0.8362092872,0.2919707733,0.7407405547,1.154638244
14.87191312,0.3715174645,0.6408992743,0.9957340479,1.241073487
14.88192813,1.437178803,0.9220532835,0.8119899738,1.890765159
14.89194312,2.316472275,1.165033745,0.6471674895,2.67248446
14.90195813,2.829495136,1.246460901,0.8974867916,3.219501521
14.91197312,2.95631218,1.056474339,1.267576951,3.385656667
14.92198912,3.003306545,0.7540417278,1.546874469,3.461394192
14.93200413,2.879066076,0.4564330691,1.462309697,3.261242443
14.94201912,2.469518906,-0.05177417099,1.176487271,2.735932472
14.95203413,1.872358559,-0.7712582695,1.146738392,2.327138765
14.96204912,1.190876392,-1.49329,1.361704259,2.345706736
14.97206413,0.5007795221,-2.016923949,1.430893777,2.523136807
14.98207912,-0.160281098,-2.396557349,1.313561794,2.73763068
14.99209413,-0.8238511969,-2.668238284,1.095078242,2.999570418
15.00210912,-1.298332136,-2.812313093,0.6805585992,3.171424171
15.01212413,-1.394549385,-2.905223011,0.4119679177,3.248816137
15.02213912,-1.147997298,-3.00534313,0.2803716516,3.229333273
15.03215512,-0.759601699,-3.042154276,0.138942726,3.138630667
15.04217013,-0.4281237745,-2.930011112,-0.02901737412,2.96126613
15.05218512,-0.2026889066,-2.729938688,-0.1800217366,2.74336579
15.06220013,-0.1073196499,-2.450957505,-0.3265839511,2.474947933
15.07221512,-0.1837376422,-2.206552661,-0.3951273519,2.249168689
15.08223013,-0.4820710632,-1.961834407,-0.5022418742,2.081690095
15.09224513,-1.045383925,-1.699202623,-0.7084334457,2.117072283
15.10226013,-1.652021878,-1.481582705,-0.882596857,2.388145894
15.11227513,-1.985814862,-1.317475335,-1.038369021,2.599502288
15.12229013,-1.896584889,-1.010507623,-1.122651372,2.424563053
15.13230513,-1.611212698,-0.5895846945,-1.160440757,2.071289266
15.14232113,-1.239508123,-0.03250525653,-1.286120811,1.786489216
15.15233613,-0.8991783911,0.538174805,-1.370918886,1.725564398
15.16235113,-0.6848717979,0.8989363164,-1.450594216,1.838847318
15.17236612,-0.6864639947,1.046676745,-1.545648308,1.988917725
15.18238113,-1.198921576,0.9241302145,-1.440299023,2.089471434
15.19239612,-2.220732451,0.4546742266,-1.388533623,2.658271411
15.20241113,-3.297861203,-0.02332980573,-1.204642199,3.51106759
15.21242612,-4.096910996,0.07093783557,-1.353308827,4.315223826
15.22244113,-4.328959796,0.6416792929,-1.664846722,4.682238763
15.23245612,-3.616260806,1.20705476,-2.18862159,4.395951305
15.24247113,-2.077191055,1.527192741,-2.535267922,3.615884924
15.25248612,-0.1257227379,1.921565802,-2.853946438,3.442852249
15.26250212,1.781267856,2.927395653,-3.123636396,4.636773104
15.27251713,2.361703412,3.65237438,-2.100836756,4.830217044
15.28253212,2.310903533,3.569300648,1.159956023,4.407457343
15.29254713,2.317203177,3.226404719,4.608922142,6.08451159
15.30256212,2.24776793,2.606094076,5.133353652,6.180251347
15.31257713,2.161370641,1.52486438,4.165360549,4.934264173
15.32259212,2.438147424,0.3311430252,3.025249976,3.89953279
15.33260713,3.323506798,-0.2320327199,2.452356743,4.136857529
15.34262212,4.198815978,-0.07303757071,2.121071046,4.704713858
15.35263713,4.521468554,0.9126486218,1.024975973,4.725164668
15.36265212,3.925835207,2.439659514,0.001683449931,4.62213408
15.37266713,2.485156992,3.991692397,-0.1676116427,4.705072489
15.38268313,0.6320229086,5.287259969,0.1895731634,5.328274479
15.39269812,-0.7635978323,5.892808732,0.3429432911,5.951964928
15.40271313,-1.507807467,5.308389468,0.6237084603,5.553511893
15.41272812,-1.90724714,3.659078797,0.9708430356,4.238984017
15.42274313,-2.404902203,1.715937354,1.125015986,3.161274518
15.43275812,-2.731018669,0.1349297637,0.9859189117,2.906665635
15.44277313,-2.487722165,-0.7823200321,0.5009257025,2.655506122
15.45278812,-1.991011428,-1.541176942,0.1496290791,2.52224934
15.46280313,-1.393374825,-2.419843301,-0.1843557111,2.798414199
15.47281812,-0.6835164133,-3.137275026,-0.3911266869,3.234604978
15.48283313,0.04433753595,-3.623223671,-0.3555171436,3.64089385
15.49284913,0.8292613332,-3.783099995,-0.2627815093,3.881826124
15.50286412,1.647598606,-3.446072332,-0.2791162544,3.829869654
15.51287913,2.120782194,-2.770121339,-0.4925109379,3.523330295
15.52289412,2.079900508,-2.018056555,-0.7671570325,2.997843941
15.53290913,1.855042322,-1.391056112,-1.03979808,2.541141313
15.54292412,1.671683579,-1.018766815,-1.105118496,2.248043305
15.55293913,1.496664428,-0.9556572318,-1.049350677,2.062625026
15.56295412,1.318322743,-1.252658365,-0.991243971,2.071157271
15.57296913,1.236355743,-1.760135288,-1.004834654,2.374098658
15.58298412,1.122399503,-2.287153021,-1.031315525,2.748538029
15.59299913,1.034630165,-2.689001162,-1.151277586,3.1026806
15.60301513,0.9203814183,-2.898055494,-1.452885155,3.369970753
15.61303012,0.7409005491,-2.96686085,-2.038514208,3.675151303
15.62304513,0.7968646887,-3.004990543,-2.683004258,4.106515962
15.63306012,0.7868140559,-2.955779791,-2.922093982,4.230170655
15.64307513,0.5170042299,-2.867657574,-3.084239611,4.243028083
15.65309013,0.2695085482,-2.858303198,-3.10090593,4.225890393
15.66310513,0.05523908481,-2.683015952,-2.834475794,3.903316409
15.67312013,-0.1269050449,-2.155057402,-2.442676678,3.259915129
15.68313513,-0.2493682525,-1.297351558,-2.003088852,2.399514647
15.69315013,-0.3286354467,-0.3258945644,-1.251073769,1.333939317
15.70316512,-0.4443264091,0.8260203677,-0.2560823909,0.972272491
15.71318013,-0.5587388778,2.169175504,0.4068358165,2.276626207
15.72319613,-0.4775330392,3.661703612,1.130654383,3.861928337
15.73321112,0.2591389498,4.936548652,1.037086726,5.050961737
15.74322613,1.030710338,5.271467809,-0.2246897864,5.375985692
15.75324112,1.27499736,4.541342947,-1.913544592,5.090291439
15.76325613,0.5249403633,3.126416747,-3.285862716,4.565844703
15.77327112,-1.011653093,1.380668533,-3.88073037,4.241433223
15.78328613,-2.705644384,-0.2392119312,-3.806342677,4.676107191
15.79330112,-4.166499002,-1.186597107,-3.506692756,5.573564453
15.80331613,-4.142875081,-0.9106705087,-2.40320154,4.875255107
15.81333112,-1.137847847,1.051800075,-0.923379432,1.803776787
15.82334613,2.229651502,3.388828676,0.6396579105,4.1066614
15.83336213,2.473776264,6.998873892,3.254516378,8.105287263
15.84337712,1.339538634,11.38091763,3.705982822,12.04383488
15.85339213,1.130212699,10.64011283,4.71551513,11.69296647
15.86340712,1.711275077,4.734049049,5.612834691,7.539469216
15.87342213,1.949144195,0.2749553758,4.918668451,5.297930057
15.88343712,1.133696909,-1.891080759,3.744276237,4.345234132
15.89345213,-0.1362515268,-2.789615956,2.106060659,3.498001309
15.90346712,-1.183608595,-2.893783518,0.6792535007,3.199421459
15.91348213,-1.982650641,-2.560798035,0.2252686608,3.246434369
15.92349712,-2.314624555,-1.849963138,0.1074917408,2.96503034
15.93351213,-1.963277646,-1.079618788,0.1103252649,2.243258235
15.94352712,-1.037568098,-0.6689068526,0.4800728138,1.32455798
15.95354312,0.3934747826,-0.624454565,0.6481930912,0.982303513
15.96355813,1.703481908,-0.4994019181,0.4829507768,1.839699524
15.97357312,2.553072694,-0.1729869515,0.4797172666,2.603504047
15.98358813,2.933712107,0.154885726,0.7550158739,3.033266438
15.99360312,2.894881625,0.3149807364,1.134755108,3.125255453
16.00361813,2.643391711,0.4047752577,1.360082241,3.000197735
16.01363312,2.241182942,0.2352948815,1.258434829,2.581070104
16.02364813,1.712594208,-0.5091299307,1.198143604,2.15121833
16.03366312,1.163132962,-1.460820996,1.319262244,2.286335307
16.04367813,0.6890747765,-2.214309577,1.269645696,2.643859139
16.05369312,0.1758912635,-2.628231634,0.9949364877,2.815748191
16.06370813,-0.3310291506,-2.819355479,0.667700572,2.916190953
16.07372413,-0.8176502247,-2.913214985,0.3883147609,3.050600235
16.08373912,-1.273753365,-2.778388132,0.1626847422,3.060776793
16.09375413,-1.605288153,-2.426147768,0.1934334952,2.915571911
16.10376912,-1.74469703,-1.906329128,0.3633863264,2.609618381
16.11378413,-1.697803384,-1.390186631,0.4613499928,2.242320007
16.12379912,-1.436548327,-1.005888907,0.5132820386,1.82727722
16.13381413,-1.178644309,-0.8092312574,0.4056956095,1.486151595
16.14382912,-0.967379145,-0.7913036942,0.1158871547,1.255154883
16.15384413,-0.8511101854,-0.949531104,-0.1522287512,1.284200708
16.16385912,-0.7102428666,-1.155289945,-0.2762879562,1.3840068
16.17387413,-0.6794221929,-1.316774254,-0.2796518229,1.507883979
16.18388913,-0.8730014299,-1.21576068,-0.1310542291,1.502458232
16.19390512,-1.109965253,-0.9607542497,-0.04392603815,1.468673241
16.20392013,-1.243931395,-0.688495025,-0.156596,1.43035416
16.21393513,-1.21037978,-0.4714077884,-0.2984114997,1.332776777
16.22395013,-1.07617624,-0.2200640541,-0.5935479373,1.248552218
16.23396513,-0.8956495965,0.03223569989,-1.34242365,1.614103031
16.24398013,-0.7663515785,-0.03754848003,-1.852937617,2.005513012
16.25399513,-0.8838513771,-0.3168372273,-1.807939784,2.037210187
16.26401012,-1.208552086,-0.393331672,-1.80258315,2.205586988
16.27402513,-1.750921684,-0.3086172116,-1.973497848,2.656250192
16.28404012,-2.699848332,-0.4247054923,-2.178680738,3.495168884
16.29405513,-3.597928616,-0.6284487981,-2.081492413,4.203884975
16.30407012,-4.097248673,-0.5130341166,-1.998143277,4.58728975
16.31408612,-3.972564985,0.2348306125,-1.995644177,4.451855081
16.32410113,-3.303080428,1.367244496,-1.804815617,4.004629475
16.33411654,-2.056489865,2.642977143,-0.9393318057,3.478048732
16.34413154,-0.4746078233,3.572472762,1.18072124,3.792349782
16.35414654,0.9380796245,4.162459161,2.52034115,4.955620966
16.36416154,1.718532641,3.930711785,2.793556395,5.119356102
16.37417654,1.942758304,2.673649882,3.434439297,4.766349421
16.38419154,2.059358655,1.626073251,4.379953948,5.105787782
16.39420654,2.264823673,1.136602244,4.221919497,4.924012101
16.40422154,3.221967852,1.068949959,3.144249001,4.627097647
16.41423654,4.507900382,1.318384577,2.423838703,5.285290702
16.42425154,5.28998711,1.690053484,1.676935841,5.801065266
16.43426754,5.333047176,2.380762265,0.6578790039,5.877263473
16.44428254,4.38464897,3.135515015,-0.1335486696,5.39207161
16.45429754,2.690192825,3.551326892,-0.3946929038,4.472677343
16.46431254,0.86002295,3.676413453,-0.1997093483,3.780944217
16.47432754,-0.6719865811,3.27209954,0.2585340554,3.350379266
16.48434254,-1.79894852,2.314478813,0.6911712956,3.011767872
16.49435754,-2.370717918,1.131250287,1.148993663,2.867092098
16.50437254,-2.69847716,-0.04495690227,1.541880947,3.108246605
16.51438754,-2.775843424,-0.9986506391,1.523805449,3.320330234
16.52440254,-2.519746488,-1.479568339,1.082013223,3.115926419
16.53441754,-2.107289743,-1.755756308,0.7274392354,2.837695917
16.54443254,-1.489522639,-2.012318682,0.5390372694,2.560989135
16.55444754,-0.7479341649,-2.28012876,0.2303259176,2.410693408
16.56446354,0.07656417266,-2.528695652,-0.1580496544,2.534786671
16.57447854,0.9278411499,-2.658565235,-0.3659357125,2.839501233
16.58449354,1.746299314,-2.605454975,-0.5081744957,3.177451532
16.59450854,2.290646439,-2.387571933,-0.6293966317,3.368041117
16.60452354,2.460442858,-2.086869512,-0.8067725033,3.325610514
16.61453854,2.411435589,-1.800512651,-0.9532604581,3.156829566
16.62455354,2.217623925,-1.582843616,-1.040941211,2.916643343
16.63456854,1.892256341,-1.442222757,-0.9951896721,2.578961618
16.64458354,1.544559556,-1.419225658,-0.8529140514,2.264360411
16.65459854,1.164924402,-1.486320704,-0.7588270891,2.035194499
16.66461354,0.8745554736,-1.627892904,-0.7433892703,1.991860987
16.67462854,0.7009187503,-1.916979831,-0.8787195683,2.222216651
16.68464454,0.6784019999,-2.218916599,-1.160105712,2.594159865
16.69465954,0.7232135989,-2.466183654,-1.627201763,3.041855569
16.70467454,0.7037995273,-2.588845375,-2.068618598,3.387718562
16.71468954,0.5621687083,-2.51342214,-2.363191967,3.495425694
16.72470454,0.2490962107,-2.240328518,-2.477686297,3.349634334
16.73471954,-0.1295250361,-1.877866636,-2.552152342,3.171220808
16.74473454,-0.5131303033,-1.588996641,-2.404090317,2.927091267
16.75474954,-0.9276977469,-1.36028514,-2.348645264,2.868297988
16.76476454,-1.305116368,-1.09056653,-2.110310415,2.710364208
16.77477954,-1.37015714,-0.5828422701,-1.241647473,1.93874293
16.78479454,-1.139220188,0.0336729455,-0.2725258942,1.17184763
16.79480954,-0.8475144401,0.5375415516,0.2085742388,1.025053588
16.80482454,-0.5723247372,1.195539839,0.1654270864,1.335753432
16.81484054,-0.1603060949,2.107777401,-0.2402854435,2.127477547
16.82485554,0.2047070731,3.209528486,-0.6267677236,3.276555488
16.83487054,0.6443495701,4.415823108,-0.9363842243,4.559769238
16.84488554,1.030115968,4.648445812,-1.783932871,5.084447252
16.85490054,0.6874223533,3.690135698,-2.299990582,4.402227577
16.86491554,-0.06469900265,2.127759091,-2.358594886,3.177186577
16.87493054,-0.9187655403,0.5019185597,-1.892791654,2.163033195
16.88494554,-1.790417871,-0.2324888027,-0.3651948702,1.842013705
16.89496054,-1.238478574,0.9759938478,0.01833453854,1.57693669
16.90497554,-0.09109538063,3.444269636,-0.2398141944,3.453809859
16.91499054,-0.4364936252,6.047295678,1.834904219,6.334602212
16.92500554,-0.8276767378,7.709045715,3.915072237,8.685748398
16.93502054,-0.3702486187,7.103778203,4.197005095,8.25927361
16.94503654,0.623764886,3.677903908,4.151283377,5.581148042
16.95505154,0.4594794685,0.03324492931,3.985486747,4.012023332
16.96506654,-0.4923770732,-2.215866106,2.545975928,3.410936999
16.97508154,-1.318483834,-3.322539377,1.322760633,3.811477826
16.98509654,-1.943040286,-3.583318763,0.9015435167,4.174728688
16.99511154,-2.382207989,-2.872734711,0.898290199,3.838547239
17.00512654,-2.514495689,-1.482713556,0.7805402128,3.02165039
17.01514154,-1.905705814,-0.531066345,1.125572641,2.276106299
17.02515654,-0.7895081605,-0.3313622957,1.319691722,1.573121212
17.03517154,0.4445731616,-0.2206131077,0.9960405151,1.112839677
17.04518654,1.559531937,0.192033087,0.4260714018,1.628052028
17.05520154,2.384888207,0.7550439405,0.1066251834,2.503827478
17.06521654,2.846254718,1.040166455,0.2927443965,3.044472279
17.07523254,2.966566735,1.046500744,0.7861850417,3.242494243
17.08524754,2.68994958,0.922026971,1.305622444,3.128995437
17.09526254,2.181698194,0.5578103399,1.471800313,2.690196191
17.10527754,1.633370722,-0.2608893138,1.446960171,2.197648035
17.11529254,1.071277151,-1.200547394,1.425455282,2.149621255
17.12530754,0.7698692635,-1.784719906,1.274731604,2.324406265
17.13532254,0.4694640277,-2.150145741,0.9354586101,2.391360699
17.14533754,0.1007484028,-2.429246208,0.5807115448,2.49972264
17.15535254,-0.2784927951,-2.504927305,0.3092393553,2.539261314
17.16536754,-0.6678473371,-2.383958938,0.2173188595,2.485258089
17.17538254,-0.9982720318,-2.118025816,0.3510832,2.367665479
17.18539754,-1.272981678,-1.745874513,0.5447862518,2.228307032
17.19541254,-1.390967234,-1.388230153,0.6054686558,2.056347514
17.20542854,-1.366488012,-1.182437398,0.5208676314,1.880625103
17.21544354,-1.241426302,-1.108628579,0.4469681811,1.723362163
17.22545854,-0.9819409047,-1.12287532,0.3524970567,1.532746261
17.23547354,-0.7283727434,-1.195901781,0.1636986494,1.409789052
17.24548854,-0.5933963482,-1.239086977,-0.08497992396,1.376472793
17.25550354,-0.534601133,-1.241000186,-0.2018166482,1.366239288
17.26551854,-0.679389887,-1.194428283,-0.06063679576,1.375465871
17.27553354,-0.9551875542,-1.041532949,-0.01797609508,1.413328443
17.28554854,-1.182949906,-0.7793841451,-0.1757766581,1.427482946
17.29556354,-1.307562112,-0.5406932008,-0.1860934854,1.427129496
17.30557854,-1.339182831,-0.3883135915,-0.2410801166,1.415032764
17.31559354,-1.138179676,-0.1438339037,-0.7287478423,1.359122726
17.32560854,-0.847853871,-0.06251258254,-1.169889858,1.446169523
17.33562329,-0.5778636584,-0.106211164,-1.622348574,1.72546287
17.34563929,-0.5029530783,-0.1695429415,-2.106650058,2.172482698
17.35565429,-0.9005052705,-0.3790527713,-2.46862779,2.654941414
17.36566929,-1.822994025,-0.8237884855,-2.523905028,3.220563813
17.37568429,-3.055599949,-1.377517469,-2.235806866,4.029029382
17.38569929,-4.154963615,-1.629922473,-2.017460139,4.898011364
17.39571429,-4.681700681,-1.465425094,-1.770425802,5.21538105
17.40572929,-4.415347729,-0.8534999424,-1.387530241,4.706272186
17.41574429,-3.1973654,0.0226024121,-1.142737727,3.39551261
17.42575929,-1.370989784,1.186262646,-1.496812363,2.351016653
17.43577429,-0.05042770341,2.487920094,-1.58298161,2.949257555
17.44578929,0.4921456696,3.314445076,0.004958466282,3.350787685
17.45580429,1.119187628,3.867367728,2.165208753,4.571350242
17.46581929,1.990787041,3.785922446,3.0462216,5.251276783
17.47583429,2.669438717,3.30709805,3.104054071,5.262884404
17.48585029,2.421967302,2.608130077,4.138205495,5.458297612
17.49586529,2.341112588,1.931858071,4.858046274,5.728306674
17.50588029,3.025607241,1.603286651,3.806926814,5.120304584
17.51589529,3.977394201,1.433291135,2.840027141,5.093107329
17.52591029,4.653201937,1.321321633,2.505833039,5.447694773
17.53592529,4.678282984,1.527017909,1.896038613,5.273810557
17.54594029,3.801531588,2.246287415,1.045986773,4.53778998
17.55595529,2.120270562,3.073476641,-0.01423329234,3.733899906
17.56597029,0.3091305971,3.59719596,-0.6862251359,3.675089854
17.57598529,-1.059910456,3.524737263,-0.319883042,3.694524071
17.58600029,-1.948223843,2.997734733,0.3776190341,3.595077997
17.59601529,-2.348252623,2.292363474,0.7129053962,3.35819219
17.60603029,-2.462276837,1.411835947,0.9884647894,3.005520022
17.61604529,-2.490975264,0.2787888104,1.254467493,2.802921629
17.62606129,-2.361041653,-0.8534403008,1.31697189,2.835011992
17.63607629,-1.965816068,-1.641996388,1.016675266,2.755760068
17.64609129,-1.404047456,-2.121258157,0.6029286253,2.614308389
17.65610629,-0.8077859719,-2.583578203,0.1927020085,2.713766491
17.66612129,-0.1195208886,-2.99659628,-0.1046218908,3.000803267
17.67613629,0.5743851498,-3.19449237,-0.242650094,3.254777853
17.68615129,1.339717851,-3.164846402,-0.3284451199,3.452386547
17.69616629,1.903079976,-3.004272505,-0.359288013,3.574416674
17.70618129,2.200679864,-2.697131131,-0.4957737207,3.51614843
17.71619629,2.189323402,-2.218530098,-0.7651490986,3.20943389
17.72621129,1.957275187,-1.726362355,-0.9436540675,2.775200197
17.73622629,1.597309189,-1.392966982,-0.9971584296,2.342237945
17.74624129,1.295957581,-1.185076246,-0.8872354531,1.96751074
17.75625629,1.216524619,-1.048510432,-0.6982633835,1.751250418
17.76627229,1.19770097,-1.018445218,-0.6924050581,1.717889123
17.77628729,1.208108429,-1.066971846,-0.8556604886,1.824858835
17.78630229,1.192192162,-1.255974321,-1.11410742,2.059133067
17.79631729,1.045776274,-1.586467136,-1.510771421,2.427541199
17.80633229,0.8271471262,-1.900275505,-2.091934955,2.944726001
17.81634729,0.5920731233,-2.115567647,-2.537779886,3.356561306
17.82636229,0.2749422196,-2.190817804,-2.593285165,3.405936556
17.83637729,-0.02025066197,-2.032689797,-2.195565743,2.992114107
17.84639229,-0.1941470017,-1.620291524,-1.64741091,2.318835998
17.85640729,-0.1791177571,-1.003017924,-1.164345528,1.547200257
17.86642229,0.07520849571,-0.1483029306,-0.4892318559,0.5167183816
17.87643729,0.4837345961,0.689807725,0.3016859039,0.8949012468
17.88645229,0.7670896433,1.111939273,0.6434428132,1.496280095
17.89646729,0.8528082168,1.181418228,0.5370059466,1.552870333
17.90648329,0.8452568302,1.254531813,0.1960740795,1.525370192
17.91649829,0.9141554493,1.688546657,-0.150700289,1.926027148
17.92651329,1.157342025,2.791191196,-0.5439384055,3.070188568
17.93652829,1.566891096,3.534827219,-1.203764532,4.049592599
17.94654329,1.35210547,3.062448792,-1.818666501,3.809767663
17.95655829,0.6731472534,2.247108364,-2.069103917,3.127908925
17.96657329,-0.07663068473,1.314646452,-2.217557706,2.579094751
17.97658829,-1.146872878,0.07266919613,-2.503017604,2.754214105
17.98660329,-2.152750091,-0.8835394281,-1.894184461,3.000484902
17.99661829,-2.090446254,-0.6083671206,-0.6822999001,2.281580428
18.00663329,-0.8698472956,1.520557905,-0.08792578775,1.753984494
18.01664829,-0.252110889,4.49488448,1.012875745,4.614484117
18.02666329,-0.2483914751,7.608409286,2.522118119,8.019393368
18.03667829,0.4943306279,8.438175965,4.473718729,9.563542003
18.04669429,1.653718448,5.532085812,3.956765224,6.999624931
18.05670929,2.176063524,1.455139841,3.083946666,4.045171375
18.06672429,1.579525467,-1.323300916,3.079417412,3.705244609
18.07673929,0.2628336592,-2.750605087,2.836393096,3.959802479
18.08675429,-0.7525509802,-3.161858475,2.786064942,4.280869054
18.09676929,-1.476759775,-2.946400858,2.6678588,4.240232072
18.10678429,-1.739670471,-1.921238358,1.90661798,3.217577085
18.11679929,-1.51439611,-0.5033832872,1.261961285,2.034535966
18.12681429,-0.7279681161,0.4648244083,0.9373074996,1.274576266
18.13682929,0.3178261377,0.8960173863,0.6535433666,1.153680867
18.14684429,1.488199414,1.252850738,0.07233349286,1.94669068
18.15685929,2.566535616,1.538414133,-0.171664896,2.997214031
18.16687429,3.124711114,1.499050092,0.1184552336,3.467708518
18.17688929,3.080837116,1.289182997,0.6827841226,3.408774603
18.18690429,2.73560084,1.041566863,1.081829621,3.120693643
18.19692029,2.227659209,0.7343477207,1.293685938,2.678685393
18.20693529,1.526050195,0.05059303343,1.319792587,2.018227273
18.21695029,0.8629616144,-0.8055901963,1.297976625,1.75454314
18.22696529,0.4848039056,-1.401523798,1.182027508,1.896442146
18.23698029,0.184117565,-1.729630364,0.9422508088,1.97822068
18.24699529,0.01569728896,-1.964650426,0.6110200755,2.057533289
18.25701029,-0.09663167059,-2.137878283,0.3220704854,2.164160491
18.26702529,-0.242184948,-2.200206678,0.02602471434,2.213648631
18.27704029,-0.4867216462,-2.163055224,-0.07506882034,2.218409608
18.28705529,-0.7780698372,-2.045895149,-0.112851189,2.191760713
18.29707029,-1.053980794,-1.841593434,0.005012452528,2.121878181
18.30708529,-1.307704199,-1.617161509,0.1880897979,2.08822398
18.31710029,-1.513461871,-1.382758328,0.2488328668,2.06506785
18.32711529,-1.565769162,-1.246610005,0.1896533433,2.010382541
18.3371315,-1.455081077,-1.234096379,0.1328487396,1.912564666
18.3471465,-1.211595708,-1.247311671,-0.01675687753,1.738974226
18.3571615,-1.047358676,-1.270816308,-0.111381199,1.650557499
18.3671765,-0.9959889865,-1.278815299,-0.1447864882,1.627367739
18.3771915,-1.032655414,-1.352172128,-0.2842061826,1.724969513
18.3872065,-1.077967388,-1.414811595,-0.3532618725,1.813422039
18.3972215,-1.054189978,-1.363435035,-0.3800457016,1.764853065
18.4072365,-1.043528165,-1.103600559,-0.4606225991,1.587154184
18.4172515,-1.024304421,-0.6819584227,-0.6411705852,1.387575784
18.4272665,-0.8531220661,-0.231433965,-0.8070046377,1.196927494
18.4372815,-0.6479689966,0.1403980798,-0.7012881482,0.9650805708
18.4472965,-0.4321897821,0.4150482309,-0.6128489383,0.857109598
18.4573115,-0.2835288557,0.5320942855,-0.6298761765,0.8719271405
18.4673265,-0.2025801484,0.5615683454,-0.8039220587,1.001343298
18.4773415,-0.07500749767,0.5920165515,-1.289888756,1.421239855
18.4873575,-0.07525629669,0.5722161251,-1.890198998,1.976346897
18.4973725,-0.2899695638,0.355730567,-2.185310311,2.232981805
18.5073875,-0.9326569167,-0.01152603149,-2.110120965,2.307074394
18.5174025,-1.590503322,-0.386739521,-2.031173029,2.608626487
18.5274175,-1.959748851,-0.5778586882,-2.15689869,2.97098438
18.5374325,-2.085658408,-0.440884738,-2.515514274,3.297296227
18.5474475,-1.995800298,-0.1275727969,-2.716190715,3.373008397
18.5574625,-1.6893353,0.3021139383,-2.769543049,3.25814292
18.5674775,-1.178342154,1.081633154,-3.024321438,3.421248409
18.5774925,-0.8652730188,1.899359831,-2.473306732,3.236280482
18.5875075,-0.9452733077,2.240415056,0.1093405207,2.434123374
18.5975225,-0.7349379972,2.816439473,2.722771171,3.985718005
18.6075375,-0.6797591387,2.947524108,3.934120419,4.962587463
18.6175525,-0.9251505536,1.435941094,5.246816533,5.517872244
18.6275675,-0.2332936719,0.2667295128,6.201151124,6.211267651
18.6375835,0.6944973381,0.07183304429,6.028797426,6.069092597
18.6475985,1.701206025,0.2206002438,4.727291422,5.028921415
18.6576135,2.811517872,0.6237967533,3.203226357,4.307483514
18.6676285,3.485259202,1.346785088,2.087455988,4.279992323
18.6776435,3.624260967,2.190640048,1.607655691,4.52976028
18.6876585,3.099188895,2.926378822,1.500767419,4.518956479
18.6976735,2.188748474,3.574937364,1.249966307,4.37415281
18.7076885,1.181788942,4.001370124,0.9224356914,4.272993748
18.7177035,0.3476804128,4.018909432,0.5810236399,4.07554943
18.7277185,-0.2644090453,3.411338702,0.4011271799,3.445003178
18.7377335,-0.9078387022,2.169329871,0.5174880139,2.407894732
18.7477485,-1.647689822,0.7881134534,0.4064972627,1.871161295
18.7577635,-2.274838492,-0.3685447401,0.007237683535,2.304510311
18.7677785,-2.567351302,-1.203620691,-0.1009650421,2.837285572
18.7777945,-2.581397776,-1.844423486,-0.05803120337,3.173149869
18.7878095,-2.160467539,-2.270808883,0.06986837983,3.135135493
18.7978245,-1.413464689,-2.328999204,0.201613092,2.731806647
18.8078395,-0.4791778609,-2.018210921,0.3947233093,2.111538121
18.8178545,0.3138684498,-1.613684755,0.5396969084,1.730249879
18.8278695,0.987470178,-1.209318802,0.6262077065,1.682166879
18.8378845,1.485321707,-0.811682995,0.5607257617,1.783093726
18.8478995,1.697570957,-0.5421175826,0.4923180894,1.848787638
18.8579145,1.636408789,-0.3699650288,0.5462878168,1.764408747
18.8679295,1.521884931,-0.1959852201,0.5264821279,1.622259961
18.8779445,1.280225355,-0.2715867949,0.2830379089,1.338972294
18.8879595,0.788957499,-0.6328488278,0.1664841899,1.025021248
18.8979745,0.2877140003,-0.9580236,0.3503042778,1.05985926
18.9079895,-0.1026500635,-1.206495767,0.7188262137,1.408147789
18.9180045,-0.3454290886,-1.386828575,1.078614821,1.790537541
18.9280205,-0.3989556701,-1.592709038,1.068203196,1.958812338
18.9380355,-0.3170863187,-1.73216864,0.6817128396,1.888301969
18.9480505,-0.1293904039,-1.794875935,0.2272426808,1.813824891
18.9580655,0.1416558158,-1.744544857,0.1140827588,1.754000571
18.9680805,0.4019861358,-1.514458675,0.3065064033,1.596597666
18.9780955,0.5135208973,-1.067736077,0.723849045,1.3884241
18.9881105,0.626531496,-0.2614488924,0.9460221899,1.164411964
18.9981255,0.6573910537,0.6104931682,0.9338565461,1.294972183
19.0081405,0.650858252,1.302269066,0.7479559457,1.636752663
19.0181555,0.7021370177,1.770112976,0.6768666673,2.021000947
19.0281705,0.7924411239,1.921744727,0.7988313997,2.226925534
19.0381855,0.6749047802,1.714293702,0.625349189,1.945600413
19.0482005,0.5624053743,1.272994396,0.3498880291,1.435003892
19.0582155,0.495385758,0.685931021,0.2047577977,0.870536714
19.0682305,0.3435563716,-0.09608729482,0.09770229578,0.3698776653
19.0782465,0.1068666369,-1.116035247,-0.2450030136,1.1475982
19.0882615,-0.1962487833,-2.231336669,-1.001794102,2.453766154
19.0982765,-0.5583686028,-3.194232169,-1.647734846,3.637296355
19.1082915,-0.9174696511,-3.747141958,-1.616675606,4.18287741
19.1183065,-1.197569992,-3.5488313,-0.974767102,3.870212964
19.1283215,-1.539206869,-2.312162147,-0.3417732632,2.79858188
19.1383365,-2.197613438,-0.5859816402,0.2913129616,2.292976787
19.1483515,-3.109688448,0.9217650157,1.360900267,3.51736585
19.1583665,-4.09693877,2.243754986,2.856006997,5.475045177
19.1683815,-4.927307712,3.505437943,5.014625938,7.855757746
19.1783965,-5.152873996,4.428722066,6.958545061,9.725586816
19.1884115,-4.547463813,4.44550182,7.697699193,9.984812789
19.1984265,-2.876661116,3.439257987,6.779895666,8.128386059
19.2084415,-1.307595002,1.537281527,5.029767888,5.419557564
19.2184565,-0.5102445562,-0.405765776,3.178539412,3.244704635
19.2284715,-0.4628435178,-1.804026242,1.692614565,2.516680129
