"Time (s)","Linear Acceleration x (m/s^2)","Linear Acceleration y (m/s^2)","Linear Acceleration z (m/s^2)","Absolute acceleration (m/s^2)"
5.888333253E-4,-1.330963692E-1,1.890580237E-1,-1.344886497E0,1.364616162E0
1.062983333E-2,8.022379875E-2,-1.821448606E-1,-8.231166404E-1,8.468374176E-1
2.067183334E-2,-1.104082954E-1,-5.355017504E-1,-3.805753863E-1,6.661754581E-1
3.071283331E-2,-5.813233097E-1,-5.490047255E-1,2.543416017E-1,8.390665226E-1
4.075383331E-2,-7.745743717E-1,1.728086114E-2,7.892893285E-1,1.106002590E0
5.079583332E-2,-6.854935031E-1,3.652334619E-1,6.963887662E-1,1.043194200E0
6.083683332E-2,-3.853516844E-1,2.048142233E-1,4.072527230E-2,4.382959440E-1
7.087783332E-2,-3.193329652E-1,-2.113768458E-4,-3.325334930E-1,4.610337421E-1
8.091883332E-2,-1.314190954E-1,3.178224832E-2,-2.818644458E-1,3.126158277E-1
9.096083333E-2,1.908196436E-1,-1.112871319E-2,-1.490893811E-1,2.424121041E-1
1.010018333E-1,3.004973294E-1,-2.418648130E-1,-7.306739151E-2,3.926016765E-1
1.110428333E-1,2.889176497E-1,-2.928244668E-1,-2.072247380E-1,4.606101049E-1
1.210848333E-1,1.349923289E-1,-2.286515674E-1,-3.944502443E-1,4.754949667E-1
1.311258333E-1,2.318093562E-1,-5.421661144E-1,-5.143579262E-1,7.824600626E-1
1.411668333E-1,3.619018646E-1,-1.010483942E0,-7.917206007E-1,1.333743703E0
1.512078333E-1,-1.427876906E-1,-1.057226291E-1,-6.325360018E-1,6.570139972E-1
1.612498333E-1,-3.066576634E-1,3.480183819E-1,-1.034027463E-1,4.752345154E-1
1.712908333E-1,-1.173518201E0,3.067037103E-1,5.829942977E-1,1.345769106E0
1.813318333E-1,-8.170690115E-1,7.253810155E-1,1.160179387E0,1.593673617E0
1.913738333E-1,-4.996416539E-2,3.155675045E-1,3.321189255E-1,4.608494856E-1
2.014148333E-1,-3.544742927E-1,1.448972198E-1,-2.398750055E-1,4.518708297E-1
2.114558333E-1,-1.838281278E-1,5.338695002E-1,-5.122786564E-1,7.623902187E-1
2.214978333E-1,-4.691310288E-1,1.088404815E0,-5.117032903E-1,1.290948961E0
2.315388333E-1,-1.212449109E0,4.442141426E-1,-1.561551565E0,2.026277952E0
2.415798333E-1,-1.270586220E0,-1.591085266E0,-4.008321878E0,4.495840961E0
2.516208333E-1,-1.346979216E-1,2.102758444E0,5.550118625E-1,2.178938909E0
2.616628333E-1,1.250419758E-2,-2.793486813E-1,2.744197708E-1,3.917885288E-1
2.717038333E-1,1.401237430E0,-1.743966859E0,6.445531994E-1,2.328161414E0
2.817448333E-1,-3.756764428E-1,-3.328070550E0,-3.085838825E-1,3.363392690E0
2.917868333E-1,-1.266093658E0,-4.089093269E0,8.401682907E-1,4.362288352E0
3.018278333E-1,-2.650289671E0,-4.442150489E0,-7.942805117E-1,5.233318052E0
3.118688333E-1,-3.850564585E0,-3.424393780E0,-3.283701001E0,6.110320175E0
3.219108333E-1,-3.007904211E0,-1.722073422E0,-3.372219075E0,4.835792190E0
3.319518333E-1,-1.792645953E0,-6.098730710E-1,-2.188067858E0,2.893642277E0
3.419928333E-1,-9.256553145E-1,9.783441362E-1,-1.757312837E0,2.214078457E0
3.520338333E-1,4.590381499E-1,4.164900666E0,-9.576388532E-1,4.298160740E0
3.620758333E-1,2.494388283E0,5.154448652E0,-1.041159312E0,5.820165507E0
3.721168333E-1,-2.885384578E-1,-9.640811692E-1,-2.468309117E0,2.665568765E0
3.821578333E-1,-1.843068101E0,-5.296059444E0,-4.002482264E0,6.889485462E0
3.921998333E-1,-2.472005727E0,-3.859782135E0,-6.203922704E0,7.713454957E0
4.022408333E-1,-4.374075450E0,-1.885472548E0,-5.800145566E0,7.505280232E0
4.122818333E-1,-4.518202884E0,-3.265606207E0,-4.644693654E0,7.256136736E0
4.223228333E-1,-9.261092046E-1,-4.675980935E0,-4.372267783E0,6.468322930E0
4.323648333E-1,2.176407341E0,-6.450811445E0,-5.437476109E0,8.712971000E0
4.424058333E-1,2.972720052E0,-7.407729337E0,-5.419611111E0,9.647989585E0
4.524468333E-1,4.796624197E0,-8.079706562E0,-4.820766181E0,1.056073143E1
4.624888333E-1,7.627046117E0,-9.034321235E0,-5.310828926E0,1.296131539E1
4.725298333E-1,1.039306096E1,-9.780178031E0,-5.813352088E0,1.540982352E1
4.825708333E-1,1.111703630E1,-1.220975578E1,-6.759170794E0,1.784245000E1
4.926128333E-1,8.577894014E0,-1.255771890E1,-5.607959282E0,1.620881788E1
5.026538333E-1,4.559321966E0,-1.128564076E1,-3.814097840E0,1.275540852E1
5.126948333E-1,4.448213174E0,-1.024990942E1,-3.397340468E0,1.167857722E1
5.227358333E-1,3.208604625E0,-9.091002390E0,-2.094842775E0,9.865588393E0
5.327778333E-1,-3.656831127E-1,-7.446898665E0,1.855830234E-1,7.458181073E0
5.428188333E-1,-4.270315731E0,-4.737901779E0,1.900714046E0,6.655525794E0
5.528598333E-1,-7.951539103E0,-4.829233534E0,4.092396653E0,1.016347288E1
5.629018333E-1,-7.713908259E0,-2.927847642E0,7.784601681E0,1.134357509E1
5.729428333E-1,-7.416432332E0,-1.558111648E0,8.902033244E0,1.169090999E1
5.829838333E-1,-7.175501320E0,-1.215049366E0,9.188108854E0,1.172115645E1
5.930248333E-1,-7.677169619E0,-7.760269663E-1,8.606339548E0,1.155898921E1
6.030668333E-1,-9.834502172E0,5.068369451E-1,7.163970026E0,1.217771667E1
6.131078333E-1,-1.368403999E1,2.207140306E0,5.291539546E0,1.483660370E1
6.231488333E-1,-1.616131113E1,4.919240309E0,2.752888133E0,1.711622902E1
6.331908333E-1,-1.694563793E1,7.472008948E0,-2.629010484E-1,1.852173532E1
6.432318333E-1,-1.757647063E1,8.979838049E0,-3.773592715E0,2.009501962E1
6.532728333E-1,-1.574329134E1,9.124250243E0,-5.963201022E0,1.914844462E1
6.633148333E-1,-1.292767457E1,8.761108915E0,-5.970957938E0,1.671927445E1
6.733558333E-1,-9.793189255E0,8.036997914E0,-4.759418364E0,1.353336449E1
6.833968333E-1,-7.003144113E0,7.658623420E0,-3.766684814E0,1.104021986E1
6.934378333E-1,-4.246433364E0,7.840527960E0,-3.859383355E0,9.716013323E0
7.034798333E-1,-2.401132210E0,8.039843754E0,-5.023597321E0,9.779624406E0
7.135208333E-1,-1.453814862E0,7.798018702E0,-6.981655011E0,1.056722196E1
7.235618333E-1,-1.200760818E0,6.740674882E0,-8.420999184E0,1.085319085E1
7.336038333E-1,-1.124206147E0,5.616283379E0,-7.342981364E0,9.312671676E0
7.436448333E-1,-1.072639552E0,4.413443876E0,-5.218897832E0,6.918521304E0
7.536858333E-1,-1.312229213E0,3.396863335E0,-2.293086775E0,4.303356014E0
7.637268333E-1,-2.544516463E0,1.453071681E0,-1.274035785E0,3.195175821E0
7.737688333E-1,-3.987254360E0,-1.989632070E-2,-5.385262227E-1,4.023506392E0
7.838098333E-1,-4.730537796E0,2.238443960E0,9.643064332E-1,5.321513516E0
7.938508333E-1,-6.213724392E0,3.279338978E0,1.124923454E0,7.115468202E0
8.038928333E-1,-7.472074437E0,2.168907702E0,1.021265184E0,7.847231332E0
8.139338333E-1,-6.703192475E0,2.008133830E0,9.658109218E-1,7.063864493E0
8.239748333E-1,-5.086523886E0,1.490437143E0,8.656313069E-1,5.370609433E0
8.340168333E-1,-2.343483342E0,6.784749439E-1,1.346122599E0,2.786447285E0
8.440578333E-1,-4.218631607E-1,-3.266874468E-1,9.389249126E-1,1.079941297E0
8.540988333E-1,1.460764863E0,-1.402646755E0,1.108824461E0,2.308840313E0
8.641398333E-1,2.984518272E0,-1.517291066E0,2.126131226E0,3.966100791E0
8.741818333E-1,5.264041260E0,-2.299070815E0,1.187994007E0,5.865763954E0
8.842228333E-1,7.625550399E0,-2.247378505E0,3.462954998E-1,7.957364489E0
8.942638333E-1,7.950083731E0,-2.227318463E0,-1.906262835E-1,8.258396772E0
9.043058333E-1,7.789589941E0,-2.855100093E0,-5.110619239E-1,8.312069073E0
9.143468333E-1,7.993533221E0,-3.270250651E0,4.430213106E-1,8.647969736E0
9.243878333E-1,7.557509274E0,-4.588512436E0,1.242991748E0,8.928349304E0
9.344288333E-1,7.544873441E0,-4.455477170E0,1.871915925E0,8.959936455E0
9.444708333E-1,6.757000893E0,-2.108263305E0,2.276512842E0,7.435344373E0
9.545118333E-1,5.322205853E0,-9.475833964E-1,2.139266996E0,5.813798476E0
9.645529583E-1,3.330480480E0,-7.007928890E-1,1.641002362E0,3.778372620E0
9.745949583E-1,2.489004167E0,1.066871858E0,1.949521340E0,3.336763516E0
9.846359583E-1,3.295094301E0,3.009448460E0,1.945133590E0,4.868056200E0
9.946769583E-1,4.611563330E0,4.582332514E0,1.681127125E0,6.714944231E0
1.004717958E0,4.295407303E0,4.948206246E0,2.088062929E0,6.877156080E0
1.014759958E0,3.921557384E0,5.352982673E0,2.265351677E0,7.011765401E0
1.024800958E0,3.675836917E0,5.428231076E0,1.921752913E0,6.831588682E0
1.034841958E0,2.031775877E0,4.150796304E0,2.530187277E0,5.268687771E0
1.044883958E0,7.700189522E-1,3.559181457E0,2.780551602E0,4.581721188E0
1.054924958E0,1.487210650E0,4.379378582E0,1.605352473E0,4.895703100E0
1.064965958E0,9.788882196E-1,3.887668092E0,1.089055025E0,4.154302130E0
1.075006958E0,1.271020668E0,3.129003555E0,7.489002711E-1,3.459336411E0
1.085048958E0,2.521074976E0,3.277373729E0,-8.574649394E-1,4.222824140E0
1.095089958E0,2.041686615E0,4.008856899E0,-3.945678099E-1,4.516093624E0
1.105130958E0,2.652125404E0,4.867572557E0,-3.656749997E-1,5.555245266E0
1.115172958E0,-1.667061940E0,5.128937835E-1,-1.150511600E1,1.163657380E1
1.125213958E0,-5.157156497E0,-4.369507897E0,-1.922649408E1,2.038006224E1
1.135254958E0,-6.094533579E0,-6.395317276E0,-1.623238287E1,1.848062976E1
1.145295958E0,-8.832839048E0,-9.735211773E0,-2.044181680E1,2.430352378E1
1.155337958E0,-5.292711328E0,-8.605610985E0,-8.218054608E0,1.302327744E1
1.165378958E0,-8.961302376E-1,-6.828510586E0,4.049316123E0,7.989278271E0
1.175419958E0,-8.886411238E-1,-6.650972162E0,9.824193531E0,1.189705393E1
1.185461958E0,-4.771604546E0,-7.810997182E0,5.270472028E0,1.056209081E1
1.195502958E0,-1.121274002E1,-1.007205349E1,-9.262811712E0,1.769100000E1
1.205543958E0,-1.027493083E1,-9.438089603E0,6.385283746E-2,1.395191084E1
1.215585958E0,-6.383034030E0,-5.891701269E0,7.029398696E0,1.117442228E1
1.225626958E0,-2.563184284E0,-2.064565893E0,2.710831157E0,4.263912706E0
1.235667958E0,6.218589860E-1,4.746980166E-1,5.700980297E0,5.754409019E0
1.245708958E0,2.088755239E0,1.474850805E0,8.075801207E0,8.470929611E0
1.255750958E0,2.951217794E0,2.571403715E0,5.731281738E0,6.940417415E0
1.265791958E0,3.566503925E0,3.174789008E0,4.047206447E0,6.259322289E0
1.275832958E0,3.400421950E0,2.482634211E0,3.358995012E0,5.386017968E0
1.285873958E0,1.555156465E0,-4.931600153E-2,3.106217541E0,3.474123070E0
1.295915958E0,-1.361622398E0,-3.644811006E0,2.337386889E0,4.538947047E0
1.305956958E0,-4.358851932E0,-7.813685732E0,1.391765818E0,9.054848810E0
1.315997958E0,-8.074435882E0,-1.191963915E1,1.703077719E0,1.449740619E1
1.326039958E0,-1.084956010E1,-1.564787180E1,4.498486365E0,1.956540891E1
1.336080958E0,-1.141891752E1,-1.798291293E1,7.158728582E0,2.247274415E1
1.346121958E0,-1.205784277E1,-2.019537538E1,5.007064319E0,2.404819020E1
1.356163958E0,-1.279558597E1,-2.072782751E1,4.831913313E0,2.483379230E1
1.366204958E0,-1.138131525E1,-1.935792779E1,4.854528004E0,2.297455435E1
1.376245958E0,-7.989663534E0,-1.502876861E1,2.758193604E0,1.724257061E1
1.386286958E0,-4.920271758E0,-1.002440103E1,-1.756887159E0,1.130417368E1
1.396328958E0,-2.613246975E0,-5.968876914E0,-5.405180182E0,8.465962685E0
1.406369958E0,-1.056402419E0,-2.998266830E0,-6.494494824E0,7.230771264E0
1.416410958E0,3.031448025E-1,-9.408509123E-1,-5.711749114E0,5.796652064E0
1.426452958E0,1.548309960E0,5.715723467E-1,-5.070823528E0,5.332655054E0
1.436493958E0,2.678716494E0,1.741849875E0,-4.711801563E0,5.693034078E0
1.446534958E0,4.291377987E0,3.001158863E0,-4.938019812E0,7.197702356E0
1.456575958E0,1.071482739E1,2.366933249E1,-1.459777151E1,2.980167377E1
1.466617958E0,3.775554748E0,7.577921319E0,-8.706488904E0,1.214424367E1
1.476658958E0,-6.226939684E-1,2.608198489E0,2.160464323E0,3.443552414E0
1.486699958E0,-2.313842636E-1,4.323869210E0,4.801662158E0,6.465705151E0
1.496741958E0,4.329518205E-1,6.084844742E0,4.479205756E0,7.568095337E0
1.506782958E0,1.335033939E0,9.705033708E0,1.590253208E0,9.924661211E0
1.516823958E0,-2.552789104E-1,1.062824649E1,-1.642611516E0,1.075746083E1
1.526864958E0,-1.733559108E0,9.622214330E0,-2.616378744E0,1.012114981E1
1.536906958E0,-2.097388653E0,8.500671006E0,-2.295818009E0,9.051586990E0
1.546947958E0,-1.652083420E0,7.832662286E0,-1.122196532E0,8.083273048E0
1.556988958E0,-6.111737841E-1,7.014493559E0,2.202946683E0,7.377643755E0
1.567030958E0,7.058133084E-1,6.508239289E0,6.141281483E0,8.976117720E0
1.577071958E0,2.430170653E0,7.183800273E0,7.118525466E0,1.040125572E1
1.587112958E0,3.838016460E0,8.088810677E0,6.005674027E0,1.078087886E1
1.597153958E0,5.119375883E0,8.991358234E0,5.444046625E0,1.169145739E1
1.607195958E0,6.459135541E0,1.061269875E1,3.833486037E0,1.300174688E1
1.617236958E0,9.389234362E0,1.434392400E1,-2.747219257E-1,1.714588434E1
1.627277958E0,8.865326763E0,1.463084103E1,4.285331381E0,1.763574758E1
1.637319958E0,7.535979826E0,1.248711260E1,7.615820632E0,1.645356183E1
1.647360958E0,6.767202530E0,9.778342590E0,6.472471286E0,1.353897701E1
1.657401958E0,6.385032023E0,5.482137142E0,6.953092532E0,1.091640771E1
1.667442958E0,7.353731470E0,4.605041345E0,7.086666327E0,1.120288409E1
1.677484958E0,7.980808511E0,5.312079061E0,5.571643395E0,1.108849397E1
1.687525958E0,7.894887770E0,5.434456022E0,4.299942696E0,1.050485946E1
1.697566958E0,8.217882115E0,5.628862494E0,2.958046465E0,1.039075158E1
1.707607958E0,8.618062631E0,5.591221043E0,1.515780438E0,1.038413918E1
1.717649958E0,8.461827952E0,4.662319500E0,1.149176389E0,9.729355672E0
1.727690958E0,7.318307283E0,2.256783167E0,-5.745380545E-1,7.679894903E0
1.737731958E0,3.785842924E0,-5.465215884E0,-1.556934487E1,1.692943268E1
1.747773958E0,-3.002896070E-2,-1.360065635E1,-3.121744471E1,3.405154342E1
1.757814958E0,-2.139917207E-1,-1.297071944E1,-1.758025320E-1,1.297367572E1
1.767855958E0,-4.111391918E0,-1.703148909E1,1.407507370E1,2.247404867E1
1.777897958E0,-7.312187587E0,-2.176542061E1,1.043797576E1,2.522207286E1
1.787938958E0,-7.663687693E0,-2.294560156E1,6.669130690E0,2.509402408E1
1.797979958E0,-4.688238453E0,-1.976025599E1,4.917659222E0,2.089570934E1
1.808020958E0,-7.724586444E0,-1.628191112E1,-1.333653996E1,2.241948179E1
1.818062958E0,-1.469608543E1,-1.377294339E1,-1.831090899E1,2.722054894E1
1.828103958E0,-8.232432911E0,-1.138906865E1,5.497986020E0,1.509011884E1
1.838144958E0,-1.217876787E1,-1.497566887E1,1.083207371E0,1.933303865E1
1.848186958E0,-1.687802306E1,-2.012873115E1,-6.391525941E0,2.703488643E1
1.858227958E0,-1.439031581E1,-2.128144423E1,-2.458274710E-1,2.569127262E1
1.868268958E0,-1.212103948E1,-1.599329256E1,-1.650944967E0,2.013530790E1
1.878309958E0,-9.245650134E0,-6.666492426E0,4.602569143E0,1.229259169E1
1.888351958E0,-1.568657452E1,-4.959641061E0,7.785677569E0,1.820119323E1
1.898392958E0,-2.120814353E1,-7.212114245E0,3.806046224E-1,2.240412471E1
1.908433958E0,-1.388281491E1,-2.795926271E0,-6.163238947E0,1.544458701E1
1.918475958E0,-4.660058967E0,4.363099934E0,-2.611143147E0,6.897163123E0
1.928516958E0,-6.273226243E-1,7.298331440E0,5.239723568E-1,7.343958232E0
1.938557958E0,6.214584517E-1,4.495882015E0,-2.720490173E-2,4.538711911E0
1.948598958E0,2.223083324E0,1.917861591E0,-4.892691319E-1,2.976520928E0
1.958640958E0,5.653029621E0,3.284866351E0,-3.101493283E-1,6.545478091E0
1.968682333E0,9.561738918E0,6.051094614E0,1.963012621E-2,1.131560792E1
1.978723333E0,1.204842642E1,7.360490266E0,-6.154790159E-1,1.413224011E1
1.988765333E0,1.244968224E1,7.421778442E0,-2.052504841E0,1.463865291E1
1.998806333E0,1.191475439E1,8.063529071E0,-2.982089338E0,1.469267607E1
2.008847333E0,1.017548840E1,9.121620750E0,-3.740760891E0,1.416819753E1
2.018888333E0,7.064614137E0,1.048305896E1,-4.535764704E0,1.343043036E1
2.028930333E0,3.725045330E0,1.127048010E1,-4.278132874E0,1.261753167E1
2.038971333E0,1.300478649E0,1.229014096E1,-9.367577152E-1,1.239420528E1
2.049012333E0,-7.636592281E-1,1.051163313E1,3.347964824E0,1.105832153E1
2.059054333E0,-1.598083799E0,8.081625618E0,6.778170737E0,1.066818368E1
2.069095333E0,-3.732599348E-1,7.672932726E0,7.591352373E0,1.080008567E1
2.079136333E0,2.514528433E0,7.451565912E0,6.107732499E0,9.957564163E0
2.089177333E0,4.706152568E0,6.823503031E0,4.523873806E0,9.443172127E0
2.099219333E0,6.091006538E0,6.139936624E0,2.563922203E0,9.020691739E0
2.109260333E0,7.233835482E0,6.935483057E0,1.059164643E-1,1.002200176E1
2.119301333E0,7.667004819E0,7.612672491E0,-1.803635795E0,1.095394210E1
2.129343333E0,7.621364377E0,6.991000616E0,-1.991071801E0,1.053202979E1
2.139384333E0,6.337525150E0,6.790079176E0,-2.191039413E0,9.543063133E0
2.149425333E0,4.623230864E0,7.946567216E0,-1.698741131E0,9.349220051E0
2.159466333E0,3.171822131E0,8.860455447E0,2.801060419E-1,9.415231583E0
2.169508333E0,2.078529629E0,8.640829934E0,2.416356167E0,9.209940526E0
2.179549333E0,2.260319563E0,8.273383301E0,3.947655554E0,9.441498830E0
2.189590333E0,3.241997489E0,6.995805273E0,4.676120099E0,9.017645941E0
2.199632333E0,5.249736632E0,5.278631818E0,4.536676869E0,8.718091855E0
2.209673333E0,8.027055309E0,4.680561644E0,4.271075284E0,1.022660053E1
2.219714333E0,1.015374494E1,5.092183406E0,4.417624050E0,1.218787391E1
2.229755333E0,1.034988979E1,4.625200206E0,3.278909208E0,1.180101442E1
2.239797333E0,9.141012456E0,3.081696657E0,-1.047006966E0,9.703153435E0
2.249838333E0,5.185785050E0,-8.724770808E-1,-7.387310275E0,9.067851782E0
2.259879333E0,-2.025200683E0,-6.576680363E0,-1.107391425E1,1.303785793E1
2.269921333E0,-8.235174086E0,-1.052393801E1,-9.915979614E0,1.664025286E1
2.279962333E0,-1.108635713E1,-1.115257217E1,-1.017064808E1,1.872776716E1
2.290003333E0,-1.061081594E1,-9.944209971E0,-7.879599055E0,1.653979469E1
2.300044333E0,-6.756170588E0,-7.447921928E0,2.457578892E0,1.035167021E1
2.310086333E0,-4.150747188E0,-6.730196671E0,1.049506096E1,1.314041681E1
2.320127333E0,-5.471655423E0,-8.909061597E0,9.488511897E0,1.411886149E1
2.330168333E0,-9.786183706E0,-1.142978749E1,3.857051486E0,1.553339241E1
2.340210333E0,-1.989441217E1,-1.147502974E1,-1.513818989E1,2.750688525E1
2.350251333E0,-2.326257679E1,-1.154114538E1,-1.754645103E1,3.134044446E1
2.360292333E0,-1.527502994E1,-1.316310336E1,8.228295422E0,2.177839928E1
2.370333333E0,-1.502572338E1,-1.406269398E1,3.293593905E0,2.084177262E1
2.380375333E0,-8.150903429E0,-1.218855728E1,-2.584811965E0,1.488890218E1
2.390416333E0,-6.776815937E0,-1.236843284E1,1.502187416E0,1.418308613E1
2.400457333E0,-5.963112144E0,-1.364120095E1,4.548443806E0,1.556693325E1
2.410499333E0,-6.929925864E0,-1.360551188E1,4.985909092E0,1.606216410E1
2.420540333E0,-7.503952872E0,-1.153941226E1,5.007026896E0,1.464710423E1
2.430581333E0,-8.241968551E0,-7.987318801E0,4.838672694E0,1.245552330E1
2.440622333E0,-7.399210528E0,-5.757742728E0,3.536494260E0,1.002031484E1
2.450664333E0,-5.071879535E0,-5.731860613E0,1.929190571E0,7.893032646E0
2.460705333E0,-2.570981546E0,-1.032686112E0,8.918861823E-1,2.910643860E0
2.470746333E0,-2.023828341E0,2.683997115E0,-1.028923867E0,3.515452459E0
2.480788333E0,-2.351638454E0,2.185430764E0,-3.542046776E0,4.780419061E0
2.490829333E0,-8.886943334E-1,4.209691799E0,-5.779771528E0,7.205348124E0
2.500870333E0,8.604780096E-1,6.618142385E0,-6.743813667E0,9.487847691E0
2.510911333E0,2.455996050E0,7.448825322E0,-6.778638514E0,1.036662218E1
2.520953333E0,5.306728858E0,7.972015468E0,-5.715875494E0,1.115283078E1
2.530994333E0,8.550159500E0,8.301901342E0,-3.980613678E0,1.256471562E1
2.541035333E0,1.011009080E1,7.061644921E0,-2.205823659E0,1.252782595E1
2.551077333E0,1.086397232E1,4.995168158E0,-9.388556962E-1,1.199412562E1
2.561118333E0,1.109979871E1,4.485158806E0,-5.750466160E-1,1.198552709E1
2.571159333E0,8.230525550E0,8.233141009E0,-6.083219509E-1,1.165745329E1
2.581200333E0,3.216471469E0,1.263768308E1,-5.288594596E-1,1.305129935E1
2.591242333E0,2.086999905E-1,1.118367117E1,-1.559089887E-1,1.118670479E1
2.601283333E0,4.258410215E-1,7.954042881E0,1.797024786E0,8.165625317E0
2.611324333E0,3.034600258E0,7.138028854E0,5.064800895E0,9.263501646E0
2.621366333E0,5.545608668E0,7.927321690E0,7.378345324E0,1.216701214E1
2.631407333E0,5.752506546E0,6.934934004E0,7.379528216E0,1.164654790E1
2.641448333E0,5.640512486E0,6.497274005E0,5.941590883E0,1.045621599E1
2.651489333E0,5.078472270E0,6.579671214E0,4.366595399E0,9.388828962E0
2.661531333E0,3.949452111E0,6.466738091E0,3.128453917E0,8.197810526E0
2.671572333E0,3.958824613E0,7.234727182E0,1.802471906E0,8.441710413E0
2.681613333E0,4.644817615E0,8.183803373E0,5.210607357E-1,9.424461396E0
2.691655333E0,5.482062882E0,8.485633137E0,-4.518375961E-1,1.011252394E1
2.701696333E0,6.287690501E0,8.738939781E0,-4.253369915E-1,1.077427640E1
2.711737333E0,6.302029628E0,8.805664698E0,5.941238880E-1,1.084473565E1
2.721778333E0,6.470645201E0,8.321029923E0,4.449660945E-1,1.055020299E1
2.731820333E0,6.322149897E0,7.898841072E0,3.245347944E-1,1.012257835E1
2.741861333E0,4.924911523E0,6.847393584E0,9.157464767E-1,8.484111269E0
2.751902333E0,4.170538259E0,6.397263229E0,1.213475003E0,7.732456774E0
2.761944333E0,4.506342099E0,6.653608087E0,1.056148796E0,8.105126154E0
2.771985333E0,5.219379058E0,7.752225063E0,1.333645664E0,9.440207728E0
2.782026333E0,4.734802755E0,7.278183689E0,1.310795914E0,8.781144622E0
2.792067333E0,4.265105862E0,3.653889978E0,-2.319648921E0,6.076414330E0
2.802109333E0,6.071741717E0,-1.296544642E0,-1.459610623E1,1.586169576E1
2.812150333E0,4.372550789E0,-8.233975407E0,-2.593952099E1,2.756403999E1
2.822191333E0,-2.401278976E0,-1.672556744E1,-9.909925407E0,1.958870513E1
2.832233333E0,-5.468673928E0,-1.747195984E1,1.001932915E1,2.087013972E1
2.842274333E0,-9.759241490E0,-1.520212920E1,6.458532693E0,1.918489435E1
2.852315333E0,-1.281475198E1,-1.198378077E1,5.121332946E0,1.827722410E1
2.862356333E0,-1.610298866E1,-1.032516426E1,8.584501952E0,2.096685323E1
2.872398333E0,-2.190200455E1,-1.619467885E1,1.059876016E1,2.922839618E1
2.882439333E0,-2.442179430E1,-2.206036820E1,3.525644166E0,3.309855056E1
2.892480333E0,-2.610391429E1,-2.441387016E1,-2.379120952E1,4.293568501E1
2.902522333E0,-2.053333742E1,-2.277441380E1,-2.620979333E0,3.077598743E1
2.912563333E0,-1.691431088E1,-1.767944829E1,1.438505332E1,2.838285686E1
2.922604333E0,-1.477312717E1,-1.528905858E1,6.821645955E0,2.232790748E1
2.932645333E0,-1.138152691E1,-1.550222000E1,1.252924998E0,1.927246224E1
2.942687333E0,-7.709241596E0,-1.569160664E1,2.717529727E0,1.769304645E1
2.952728333E0,-3.750129300E-1,-8.164303493E0,2.590796006E0,8.573722072E0
2.962769333E0,8.864361387E-1,-6.809730499E0,1.417138202E0,7.011881287E0
2.972811500E0,-1.362135783E0,-4.735967520E0,2.212467997E-1,4.932925338E0
2.982852500E0,-4.303769991E0,1.036666312E0,-9.246505436E-1,4.522398899E0
2.992893500E0,2.585010186E0,2.446495611E1,-1.574670378E0,2.465148965E1
3.002934500E0,1.116504896E1,4.999883002E1,-3.553309683E0,5.135335755E1
3.012976500E0,-7.665191597E0,1.226726314E1,-2.558028209E0,1.468960229E1
3.023017500E0,-1.334859809E1,4.127514446E-1,-2.509919658E0,1.358878697E1
3.033058500E0,-6.381969252E0,-1.908206668E0,-4.593387845E0,8.091353169E0
3.043100500E0,3.903878912E0,-5.457098195E0,-8.662145959E0,1.095686834E1
3.053141500E0,1.274124663E1,-9.001430063E0,-1.422510975E1,2.111205476E1
3.063182500E0,1.758262892E1,-8.432307115E0,-1.505411044E1,2.463491190E1
3.073224500E0,1.827479892E1,-2.762674910E0,-7.759225935E0,2.004510502E1
3.083265500E0,1.849676625E1,2.132966037E0,1.090629680E0,1.865125676E1
3.093306500E0,1.843797600E1,4.364126120E0,7.925530103E0,2.053822249E1
3.103347500E0,1.661894229E1,4.944063494E0,1.280337563E1,2.155364086E1
3.113389500E0,1.367752151E1,4.704034706E0,1.393612398E1,2.008527044E1
3.123430500E0,9.984583826E0,5.424599955E0,1.205990684E1,1.656983862E1
3.133471500E0,6.169667376E0,6.640634285E0,8.504196292E0,1.242916626E1
3.143513500E0,2.911070226E0,8.106122528E0,4.387662917E0,9.666185296E0
3.153554500E0,8.047517055E-1,9.042205036E0,1.464357977E0,9.195294531E0
3.163595500E0,-1.057027486E0,9.680494114E0,-5.907551609E-2,9.738211504E0
3.173636500E0,-1.768280459E0,1.062150933E1,-1.228353682E0,1.083753335E1
3.183678500E0,-7.441780597E-1,1.163160882E1,-1.766027527E0,1.178842559E1
3.193719500E0,1.701432751E0,1.216332888E1,-8.946788856E-1,1.231429630E1
3.203760500E0,2.624685883E0,1.212124296E1,1.042522517E0,1.244589732E1
3.213802500E0,3.360638664E0,1.270192293E1,2.266014605E0,1.333295019E1
3.223843500E0,3.272501829E0,1.386876288E1,3.443365656E0,1.465976191E1
3.233884500E0,2.470997667E0,1.417235266E1,3.438042351E0,1.479126582E1
3.243925500E0,1.400670689E0,1.173818836E1,2.076497136E0,1.200244911E1
3.253967500E0,1.949295053E0,9.640670482E0,1.337506142E0,9.926288391E0
3.264008500E0,3.090217804E0,6.823121792E0,1.843538071E0,7.713823286E0
3.274049500E0,5.299833822E0,4.247758927E0,3.230832231E0,7.521301174E0
3.284091500E0,7.953487396E0,2.935237353E0,3.730625328E0,9.262350966E0
3.294132500E0,9.294898893E0,2.126061060E0,2.384797429E0,9.828659106E0
3.304173500E0,8.238032205E0,3.750070828E-1,-1.415914965E0,8.367234914E0
3.314214500E0,4.774084350E0,-4.299434280E-1,-1.294800885E1,1.380679782E1
3.324256500E0,-7.286618882E-1,9.983419061E-2,-3.358471803E1,3.359277006E1
3.334297500E0,-5.204341189E0,-3.868476360E0,-3.686674614E1,3.743270292E1
3.344338500E0,-4.552445056E0,-1.085507051E1,-6.905121975E0,1.364690519E1
3.354380500E0,-1.192654472E1,-1.629015336E1,1.724228121E1,2.655010031E1
3.364421500E0,-2.098946468E1,-2.084482562E1,2.139137890E1,3.650555401E1
3.374462500E0,-2.461585170E1,-2.518161425E1,1.833105732E1,3.969989312E1
3.384503500E0,-1.850778006E1,-2.545327121E1,1.100290801E1,3.333873007E1
3.394545500E0,-1.272587079E1,-2.266718522E1,5.023959264E0,2.647620139E1
3.404586500E0,-1.668188757E1,-1.750356521E1,-4.182150829E0,2.453875615E1
3.414627500E0,-2.166962216E1,-1.569952727E1,-4.281854042E0,2.709948257E1
3.424669500E0,-2.198964729E1,-1.403970740E1,8.690875669E0,2.749889619E1
3.434710500E0,-1.952050846E1,-7.043106324E0,7.441995775E0,2.204628990E1
3.444751500E0,-1.989369179E1,-6.774116278E0,5.324317868E0,2.167939079E1
3.454793500E0,-1.729207142E1,-6.560161979E0,4.078024782E0,1.893889504E1
3.464834500E0,-1.077289842E1,-6.052385094E0,2.384355379E0,1.258458805E1
3.474875500E0,-4.034637272E0,-5.441646928E0,1.445045793E0,6.926613642E0
3.484916500E0,8.569182247E-1,-2.093274552E0,1.231207269E0,2.575262809E0
3.494958500E0,8.250842285E-1,-2.320036007E0,1.996122662E-1,2.470460709E0
3.504999500E0,2.461429283E0,-4.117068980E0,-1.063972224E0,4.913341836E0
3.515040500E0,3.215754601E0,-6.250583485E0,-4.059861576E0,8.117471748E0
3.525082500E0,9.424301283E0,-4.898030704E0,-8.547060476E0,1.363306283E1
3.535123500E0,1.700292661E1,-1.215388212E0,-1.344255466E1,2.170896030E1
3.545164500E0,2.190294010E1,1.612881932E0,-1.734914609E1,2.798808753E1
3.555205500E0,2.327703578E1,2.961171509E0,-1.896292382E1,3.016921297E1
3.565247500E0,1.933668837E1,4.207013775E0,-1.691868577E1,2.603552208E1
3.575288500E0,1.480378295E1,3.996364322E0,-1.244032903E1,1.974549832E1
3.585329500E0,1.045123607E1,2.615947219E0,-7.187004547E0,1.295085131E1
3.595371500E0,6.199543140E0,1.888667613E0,-1.426747516E0,6.636038650E0
3.605412500E0,2.482713733E0,8.842346621E-1,4.917075670E0,5.578832455E0
3.615453500E0,7.909078377E-1,3.574698797E0,1.013386324E1,1.077493345E1
3.625494500E0,-1.640265028E0,2.827712905E0,1.437386993E1,1.474091471E1
3.635536500E0,1.553768921E-1,3.868011507E0,1.402125944E1,1.454583690E1
3.645577500E0,4.486562138E0,6.569807546E0,1.154184353E1,1.401805133E1
3.655618500E0,7.586637179E0,8.173672487E0,9.395966846E0,1.458252991E1
3.665660500E0,8.955059304E0,8.472274003E0,8.142079396E0,1.477382722E1
3.675701500E0,8.932425901E0,7.663204713E0,6.921350337E0,1.365349880E1
3.685742500E0,8.894535359E0,8.122805219E0,5.295203412E0,1.315795968E1
3.695784500E0,8.671207974E0,9.321513079E0,4.138876755E0,1.338696211E1
3.705825500E0,7.519615808E0,9.874024673E0,3.091943318E0,1.279066451E1
3.715866500E0,5.869721586E0,9.724646439E0,2.162489798E0,1.156281722E1
3.725907500E0,4.403931625E0,9.062188480E0,7.840527083E-1,1.010606810E1
3.735949500E0,2.972595799E0,7.621546226E0,-3.627931264E-1,8.188767398E0
3.745990500E0,1.926500852E0,5.959360571E0,-9.942887624E-1,6.341450472E0
3.756031500E0,1.914050961E0,4.720608054E0,-1.415365326E0,5.286869631E0
3.766073500E0,3.506208606E0,4.668458492E0,-2.241139673E0,6.253855652E0
3.776114500E0,5.697974828E0,5.414808792E0,-2.894303920E0,8.376399381E0
3.786155500E0,6.833685372E0,5.080510025E0,-2.318103941E0,8.825216358E0
3.796196500E0,7.514464411E0,3.855419528E0,-7.693262033E-1,8.480760457E0
3.806238500E0,7.711802092E0,2.719206124E0,3.399220347E-2,8.177232351E0
3.816279500E0,6.366371219E0,1.504202074E0,-1.535334696E0,6.719416568E0
3.826320500E0,2.063582976E0,-1.693085850E0,-5.727282243E0,6.318755913E0
3.836362500E0,-3.869921792E0,-9.261208405E0,-8.920642008E0,1.342848203E1
3.846403500E0,-8.792847016E0,-1.555853804E1,-4.545803204E0,1.844035226E1
3.856444500E0,-1.156029852E1,-2.010620768E1,-2.639192240E0,2.334235259E1
3.866486500E0,-1.614451559E1,-2.534216476E1,-1.582886593E-1,3.004822380E1
3.876527500E0,-1.781649416E1,-2.575626457E1,1.808979857E0,3.137012969E1
3.886568500E0,-1.388668811E1,-1.815942985E1,5.844993711E0,2.359595200E1
3.896609500E0,-1.004483588E1,-1.155613062E1,7.973549777E0,1.726326675E1
3.906651500E0,-1.509981462E1,-1.195571414E1,4.850180014E0,1.986121215E1
3.916692500E0,-2.327195338E1,-1.526015697E1,5.380558727E0,2.834442832E1
3.926733500E0,-2.576024302E1,-1.447045541E1,8.916729051E0,3.086247328E1
3.936775500E0,-2.404758888E1,-1.034778246E1,9.358672135E0,2.780194016E1
3.946816500E0,-2.317345586E1,-9.616489322E0,7.392515466E0,2.615597845E1
3.956857500E0,-2.079730880E1,-9.009758252E0,4.901260121E0,2.318892296E1
3.966898458E0,-1.689967180E1,-5.273790908E0,4.851368169E0,1.835613114E1
3.976940458E0,-1.533353251E1,-6.991654919E0,5.551158260E0,1.774304978E1
3.986981458E0,-1.191425387E1,-5.953770048E0,3.949276110E0,1.389221382E1
3.997022458E0,-9.158193330E0,-5.893104601E0,2.540287757E0,1.118276570E1
4.007064458E0,-4.332925962E0,-4.830204172E0,1.513836531E0,6.663093934E0
4.017105458E0,1.756123513E-1,-7.292632744E0,2.381518128E-1,7.298633319E0
4.027146458E0,7.243706167E0,-8.179522042E0,-2.633644987E0,1.123885874E1
4.037188458E0,1.290889449E1,-6.836942271E0,-6.271839868E0,1.589714792E1
4.047229458E0,1.526718766E1,-4.610375468E0,-8.329278590E0,1.799220561E1
4.057270458E0,1.566037081E1,-3.029418748E0,-7.537850350E0,1.764210248E1
4.067311458E0,1.537592482E1,-2.871375526E0,-5.801681045E0,1.668302624E1
4.077353458E0,1.489848563E1,-3.009084179E0,-3.805079094E0,1.566837862E1
4.087394458E0,1.569006063E1,-3.568625002E0,-3.017378454E0,1.637124491E1
4.097435458E0,1.600831756E1,-3.663825859E0,-2.530161549E0,1.661600339E1
4.107477458E0,1.578328396E1,-2.933495760E0,-1.970583011E0,1.617407331E1
4.117518458E0,1.640802621E1,-1.904018162E0,-2.090027740E0,1.664982958E1
4.127559458E0,1.667402073E1,-1.170162923E0,-2.266674317E0,1.686801888E1
4.137600458E0,1.740170671E1,4.613716274E-2,-2.275503613E0,1.754991287E1
4.147642458E0,1.832011134E1,1.333017088E0,-1.434231952E0,1.842445210E1
4.157683458E0,1.881360113E1,2.206487026E0,-2.669755344E-1,1.894443054E1
4.167724458E0,2.055011425E1,3.446507657E0,1.397015740E0,2.088389963E1
4.177766458E0,2.000495261E1,3.775012127E0,3.763035567E0,2.070288101E1
4.187807458E0,1.752733063E1,3.462961138E0,5.440035435E0,1.867601147E1
4.197848458E0,1.526248883E1,3.390031448E0,5.525024714E0,1.658197144E1
4.207890458E0,1.346686972E1,3.379505875E0,4.995240079E0,1.475567902E1
4.217931458E0,1.221345239E1,3.567995257E0,4.184769212E0,1.339445044E1
4.227972458E0,1.128757736E1,3.575603654E0,3.121467079E0,1.224491327E1
4.238013458E0,1.040365377E1,3.483927206E0,2.226693834E0,1.119517423E1
4.248055458E0,9.597625034E0,3.199201426E0,1.732407645E0,1.026404074E1
4.258096458E0,9.105194752E0,2.888983539E0,1.479718759E0,9.666455656E0
4.268137458E0,8.849460343E0,2.747682357E0,1.338534082E0,9.362391798E0
4.278179458E0,8.842874039E0,2.877670931E0,1.324841073E0,9.393221765E0
4.288220458E0,9.027592260E0,2.973579008E0,1.756518492E0,9.665658350E0
4.298261458E0,9.402591156E0,3.015008285E0,2.516611211E0,1.018981489E1
4.308302458E0,9.449136747E0,2.999663145E0,2.760555587E0,1.029100731E1
4.318344458E0,8.810914913E0,2.593512914E0,2.006222083E0,9.401247677E0
4.328385458E0,7.579205368E0,1.171169229E0,-1.208865058E-1,7.670111141E0
4.338426458E0,6.048823555E0,2.195255256E-1,-3.220238246E0,6.856120785E0
4.348468458E0,4.314559273E0,-3.523491222E-1,-7.442250713E0,8.609684507E0
4.358509458E0,4.325129870E0,4.877221048E-1,-7.765066134E0,8.901734286E0
4.368550458E0,5.227196200E0,6.512114239E-1,-7.347526989E0,9.040675267E0
4.378592458E0,7.067310873E0,-1.540852422E0,-7.272614801E0,1.025729181E1
4.388633458E0,6.373572650E0,-9.158089834E0,-7.863452554E0,1.365016204E1
4.398674458E0,-2.085165517E1,-3.665675626E1,3.209207766E-1,4.217359710E1
4.408715458E0,-7.571395826E1,-8.429259078E1,1.582587157E1,1.144041195E2
4.418757458E0,-1.022853808E2,-1.056436005E2,3.566457264E1,1.513103803E2
4.428798458E0,-6.503595079E1,-7.162856014E1,3.576144931E1,1.031465306E2
4.438839458E0,-2.634371796E1,-2.756276653E1,1.631018943E1,4.146950510E1
4.448881458E0,-1.006537831E1,-4.382525554E0,-6.539058793E0,1.277801474E1
4.458922458E0,-1.982703704E0,6.425637428E0,-2.066914485E1,2.173553495E1
4.468963458E0,2.164226421E0,7.092418233E0,-1.053319650E1,1.288155661E1
4.479005458E0,5.134050055E0,8.875369356E0,-7.069347458E0,1.245416897E1
4.489046458E0,6.945784682E0,1.013469705E1,-6.206355731E0,1.376498677E1
4.499087458E0,7.646364732E0,1.057585661E1,-6.253319982E0,1.447133883E1
4.509128458E0,7.233099318E0,1.113403416E1,-6.964589328E0,1.499299659E1
4.519170458E0,6.046221544E0,1.095809144E1,-3.901012022E0,1.310932713E1
4.529211458E0,4.760010687E0,1.097925134E1,-2.671885558E-1,1.196967215E1
4.539252458E0,3.463201751E0,1.209516906E1,5.198518970E-1,1.259194691E1
4.549294458E0,2.921065457E0,1.288145234E1,1.409967177E0,1.328354038E1
4.559335458E0,2.027519689E0,1.360227720E1,2.424126386E0,1.396456837E1
4.569376458E0,1.228202385E0,1.441966415E1,3.572829443E0,1.490638473E1
4.579417458E0,9.648396993E-1,1.492244167E1,3.897620053E0,1.545320753E1
4.589459458E0,1.161352923E0,1.584405758E1,3.737078900E0,1.632019179E1
4.599500458E0,1.019958770E0,1.626052084E1,3.506040207E0,1.666544844E1
4.609541458E0,1.841267159E0,1.568986183E1,2.033154650E0,1.592782932E1
4.619583458E0,2.472727858E0,1.401149810E1,5.497369431E-1,1.423863310E1
4.629624458E0,3.332238738E0,1.338437369E1,-5.025933284E-1,1.380209673E1
4.639665458E0,5.068434355E0,1.320204347E1,-4.221573926E0,1.475820670E1
4.649707458E0,6.193365557E0,1.331585134E1,-5.105568852E0,1.554787790E1
4.659748458E0,6.310402256E0,1.293083207E1,-2.411774728E0,1.458918271E1
4.669789458E0,6.554951525E0,1.257503134E1,-1.069724130E0,1.422122049E1
4.679830458E0,6.785401404E0,1.213665389E1,-1.271555981E0,1.396269653E1
4.689872458E0,6.757599648E0,1.106547438E1,-1.759622487E0,1.308457671E1
4.699913458E0,6.261703720E0,9.594330128E0,-2.089051693E0,1.164578211E1
4.709954458E0,5.979425876E0,8.896973648E0,-1.772713233E0,1.086518229E1
4.719996458E0,5.871310859E0,8.398248253E0,-1.138416635E0,1.031013372E1
4.730037458E0,6.041696384E0,7.975774058E0,-7.305148709E-1,1.003238352E1
4.740078458E0,6.330167014E0,7.779245632E0,-2.720615705E-1,1.003303018E1
4.750120458E0,6.666821625E0,7.718014759E0,4.889323871E-2,1.019885547E1
4.760161458E0,6.831530088E0,7.584573696E0,1.687781256E-1,1.020901795E1
4.770202458E0,6.923562924E0,7.409488179E0,1.757357275E-1,1.014234301E1
4.780243458E0,7.021420755E0,7.209812781E0,5.705127855E-2,1.006404514E1
4.790285458E0,7.042515755E0,6.901860398E0,-1.366559787E0,9.954907873E0
4.800326458E0,6.124111719E0,5.140255705E0,-9.870022838E0,1.270213856E1
4.810367458E0,4.840495856E0,3.000135015E0,-1.648835292E1,1.744411053E1
4.820409458E0,6.161552610E0,5.911972981E0,6.373910180E-1,8.562851301E0
4.830450458E0,6.159144142E0,6.627601426E0,3.333521032E0,9.642225868E0
4.840491458E0,3.990366833E0,5.762824543E0,2.698769521E0,7.511093869E0
4.850533458E0,-6.110760187E0,4.774210650E-1,6.047392741E0,8.610475010E0
4.860574458E0,-2.929580640E1,-1.679381380E1,1.358095240E1,3.639668560E1
4.870615458E0,-5.901821162E1,-4.215596435E1,1.978004531E1,7.517662420E1
4.880656458E0,-7.891702558E1,-6.670459645E1,1.080691168E1,1.038950887E2
4.890698458E0,-7.110297030E1,-7.621661299E1,-1.825315136E1,1.058195729E2
4.900739458E0,-2.396421927E1,-5.325546719E1,-4.688796161E1,7.489265341E1
4.910780458E0,-6.968623322E0,-3.359887765E1,-3.497856327E1,4.899945080E1
4.920822458E0,-1.195556796E1,-1.784428948E1,2.041607970E1,2.963394308E1
4.930863458E0,-5.005494341E0,-8.876054065E0,1.630306752E1,1.922574628E1
4.940904458E0,2.183859032E0,-4.738209343E-1,2.658490975E0,3.472941234E0
4.950946458E0,6.899031515E0,4.954553983E0,-4.985961133E0,9.849063379E0
4.960987458E0,8.356068193E0,6.450733092E0,-4.844664921E0,1.161493053E1
4.971028000E0,9.384201078E0,7.307968821E0,-4.480276381E0,1.270993763E1
4.981069000E0,1.004559835E1,7.719431539E0,-4.606831178E0,1.348059951E1
4.991111000E0,1.061653452E1,7.973297178E0,-4.505213002E0,1.402074240E1
5.001152000E0,1.070558762E1,7.784517481E0,-3.757127248E0,1.375951757E1
5.011193000E0,1.021466475E1,7.506519215E0,-2.761811861E0,1.297361982E1
5.021235000E0,9.402381241E0,7.472437549E0,-2.349051645E0,1.223765253E1
5.031276000E0,8.949301550E0,7.651927773E0,-2.420830311E0,1.202091578E1
5.041317000E0,8.612016610E0,7.979952478E0,-3.263643882E0,1.218596911E1
5.051359000E0,8.324387394E0,8.411688078E0,-5.015566170E0,1.285331964E1
5.061400000E0,7.590225615E0,8.693789921E0,-5.697197149E0,1.287056966E1
5.071441000E0,6.797972333E0,8.734014087E0,-4.864635501E0,1.208966949E1
5.081482000E0,6.261243544E0,8.744943117E0,-3.302188143E0,1.125085096E1
5.091524000E0,5.881969748E0,8.633866485E0,-1.197741315E0,1.051550298E1
5.101565000E0,5.686841145E0,8.460096592E0,8.137360255E-1,1.022621938E1
5.111606000E0,5.539932775E0,8.519362215E0,1.794586498E0,1.031944419E1
5.121648000E0,5.434686987E0,8.671341875E0,2.282659289E0,1.048515741E1
5.131689000E0,5.371492619E0,8.766745046E0,2.763397626E0,1.064636643E1
5.141730000E0,5.232388528E0,8.869123360E0,3.190961237E0,1.078060631E1
5.151772000E0,5.080324668E0,8.964403739E0,3.641103287E0,1.092830574E1
5.161813000E0,4.954814184E0,9.001212546E0,4.085013374E0,1.105709479E1
5.171854000E0,4.849589446E0,9.010024300E0,4.480857010E0,1.117036863E1
5.181895000E0,4.851176965E0,8.954703208E0,4.875035359E0,1.129099629E1
5.191937000E0,5.079936413E0,8.827235661E0,5.007019880E0,1.134883657E1
5.201978000E0,5.278719526E0,8.701248044E0,4.779166750E0,1.124353290E1
5.212019000E0,5.324631863E0,8.617225894E0,4.514917918E0,1.109021057E1
5.222061000E0,5.197510471E0,8.546209121E0,4.231703643E0,1.086089873E1
5.232102000E0,5.031914985E0,8.476205086E0,3.860516546E0,1.058630290E1
5.242143000E0,5.048520493E0,8.370041285E0,3.365704400E0,1.033794546E1
5.252185000E0,5.195068674E0,8.226339528E0,2.671312165E0,1.008946526E1
5.262226000E0,5.256543961E0,8.120217826E0,1.903550384E0,9.858635607E0
5.272267000E0,5.338269909E0,8.051746346E0,1.300048878E0,9.747711113E0
5.282308000E0,5.372710594E0,7.975860597E0,1.038954327E0,9.672631363E0
5.292350000E0,5.338233072E0,7.915879274E0,7.730345075E-1,9.578907002E0
5.302391000E0,5.134995550E0,7.803365396E0,6.074075925E-1,9.361070173E0
5.312432000E0,3.393187775E0,6.415512389E0,4.587444735E-1,7.272067724E0
5.322474000E0,-5.936489187E0,-3.213121600E0,1.853602445E0,7.000135449E0
5.332515000E0,-2.166394101E1,-2.440716691E1,4.843646336E0,3.299237861E1
5.342556000E0,-3.991512420E1,-5.037249049E1,2.315438926E0,6.431147794E1
5.352598000E0,-5.911479359E1,-7.515616196E1,5.337217849E-2,9.561908988E1
5.362639000E0,-6.619980866E1,-8.535815929E1,4.554352418E0,1.081164749E2
5.372680000E0,-3.647450089E1,-5.717652580E1,-3.172563324E1,7.487362768E1
5.382721000E0,-1.776520940E1,-2.891333535E1,2.348716161E-1,3.393580396E1
5.392763000E0,-1.526343608E1,-1.763938668E1,1.627341629E1,2.844195002E1
5.402804000E0,-7.060802922E0,-6.446264650E0,4.136326784E0,1.041721964E1
5.412845000E0,-2.779549974E-1,1.721454202E0,-2.682773293E0,3.199677498E0
5.422887000E0,4.311440953E0,6.373086162E0,-5.430555344E0,9.417838481E0
5.432928000E0,7.464706360E0,8.713374585E0,-5.777068945E0,1.284598238E1
5.442969000E0,8.422642837E0,9.604021888E0,-5.563063191E0,1.393290425E1
5.453011000E0,8.163933365E0,9.675060881E0,-4.986824766E0,1.360606601E1
5.463052000E0,7.928497565E0,9.604413652E0,-4.513993766E0,1.324696097E1
5.473093000E0,7.382467026E0,9.648995748E0,-3.458468429E0,1.263190177E1
5.483134000E0,6.955245477E0,9.678946356E0,-2.301465250E0,1.213895319E1
5.493176000E0,6.741518635E0,9.844626042E0,-1.809381123E0,1.206808168E1
5.503217000E0,6.520055927E0,1.014056181E1,-1.701596473E0,1.217528454E1
5.513258000E0,6.615612295E0,1.033103837E1,-1.588363972E0,1.237010832E1
5.523300000E0,6.490386570E0,1.080277536E1,-1.715748489E0,1.271883902E1
5.533341000E0,6.502574506E0,1.096652312E1,-1.294109861E0,1.281494537E1
5.543382000E0,6.943227695E0,1.115127058E1,-6.710030794E-1,1.315330724E1
5.553424000E0,7.499683819E0,1.108653839E1,9.191914368E-4,1.338493899E1
5.563465000E0,7.664408070E0,1.087885465E1,8.188627911E-1,1.333278537E1
5.573506000E0,7.748053660E0,1.061985340E1,1.475891025E0,1.322844950E1
5.583547000E0,7.817050804E0,1.032506018E1,1.884258227E0,1.308677118E1
5.593589000E0,7.836789250E0,9.993981471E0,2.224318110E0,1.289350699E1
5.603630000E0,7.998349573E0,9.815910366E0,2.510838840E0,1.290852447E1
5.613671000E0,8.204836392E0,9.622837059E0,2.851365477E0,1.296335676E1
5.623713000E0,8.522646596E0,9.485584196E0,2.993459834E0,1.309857299E1
5.633754000E0,8.819381096E0,9.428032392E0,2.889037041E0,1.322935421E1
5.643795000E0,9.088989193E0,9.450784492E0,2.689306387E0,1.338504467E1
5.653837000E0,9.229742784E0,9.216566083E0,2.383971802E0,1.325958385E1
5.663878000E0,9.195209713E0,8.882109441E0,2.088048019E0,1.295390653E1
5.673919000E0,9.052384454E0,8.644215472E0,2.031460420E0,1.268049514E1
5.683960000E0,8.605847797E0,8.395791838E0,2.166312415E0,1.221649894E1
5.694002000E0,8.015203587E0,8.184058896E0,2.286934919E0,1.168128332E1
5.704043000E0,7.545840570E0,8.260860904E0,2.480012904E0,1.146001731E1
5.714084000E0,7.258563357E0,8.450845712E0,2.595103649E0,1.143844824E1
5.724126000E0,6.858892134E0,8.703021505E0,2.570942370E0,1.137526832E1
5.734167000E0,6.345297854E0,8.998190120E0,2.379024765E0,1.126454567E1
5.744208000E0,6.056427274E0,9.132169712E0,2.299881824E0,1.119670895E1
5.754250000E0,5.890069311E0,9.009435486E0,2.268347644E0,1.100037478E1
5.764291000E0,5.687257467E0,8.759256517E0,2.157953528E0,1.066425036E1
5.774332000E0,5.568944321E0,8.381583104E0,1.859027638E0,1.023328197E1
5.784373000E0,4.835459649E0,7.358757736E0,-2.185932601E0,9.072556794E0
5.794415000E0,-9.369227529E-1,1.531792161E0,-3.207290873E1,3.212313319E1
5.804456000E0,4.084486540E0,4.192267097E0,-1.668927494E0,6.086333271E0
5.814497000E0,4.833910722E0,4.560563915E0,9.048651592E0,1.122691105E1
5.824539000E0,-8.741668092E0,-9.605240448E0,1.452869017E1,1.948743808E1
5.834580000E0,-4.177529657E1,-4.514644561E1,3.322852670E1,6.991074268E1
5.844621000E0,-6.908061955E1,-8.328914309E1,4.192606586E1,1.160474401E2
5.854663000E0,-7.370171618E1,-1.030079470E2,1.494073410E1,1.275374676E2
5.864704000E0,-3.383191960E1,-8.295983726E1,-5.486542551E1,1.050578331E2
5.874745000E0,1.885865627E0,-4.119778346E1,-4.951927414E1,6.444355951E1
5.884787000E0,-1.140588525E1,-2.219157504E1,2.172167876E1,3.308158927E1
5.894828000E0,-6.816360657E0,-1.022682578E1,1.378834262E1,1.847076421E1
5.904869000E0,-3.748433608E-1,8.398765147E-2,5.637978888E-1,6.822239589E-1
5.914910000E0,4.336680459E0,7.013274999E0,-3.463073112E0,8.943472424E0
5.924952000E0,7.236145132E0,9.427398553E0,-4.643680331E0,1.275936546E1
5.934993000E0,8.021358367E0,1.057515962E1,-6.125365362E0,1.461835462E1
5.945034000E0,7.667866114E0,1.077500342E1,-6.837059215E0,1.488765422E1
5.955076000E0,7.107555504E0,1.171296932E1,-9.543135417E0,1.669677900E1
5.965117000E0,6.860282602E0,1.330250683E1,-1.317602220E1,1.994060496E1
5.975158375E0,6.672343735E0,1.358698556E1,-1.264134227E1,1.972130528E1
5.985200375E0,5.762421085E0,1.344209156E1,-9.086363794E0,1.721793626E1
5.995241375E0,3.839394064E0,1.392108845E1,-3.653398812E0,1.489580388E1
6.005282375E0,2.231992435E0,1.383639971E1,9.798635352E-1,1.404947970E1
6.015323375E0,1.958466411E0,1.306465379E1,4.277952780E0,1.388602352E1
6.025365375E0,2.182154569E0,1.268087880E1,6.479187398E0,1.440646921E1
6.035406375E0,3.429920568E0,1.238858000E1,7.489033116E0,1.487705907E1
6.045447375E0,4.817333280E0,1.232045292E1,7.697465304E0,1.530526812E1
6.055489375E0,5.677392629E0,1.254360138E1,6.943879659E0,1.542051191E1
6.065530375E0,6.110500571E0,1.251880685E1,5.870999787E0,1.511712210E1
6.075571375E0,6.113163977E0,1.248247459E1,4.627119555E0,1.464899932E1
6.085613375E0,5.471385866E0,1.225658379E1,3.953652166E0,1.399254355E1
6.095654375E0,4.790750669E0,1.181434133E1,3.387334127E0,1.319105702E1
6.105695375E0,4.342615968E0,1.177951414E1,2.457762494E0,1.279280514E1
6.115736375E0,4.522644721E0,1.182874653E1,4.130167620E-1,1.267060151E1
6.125778375E0,4.936250444E0,1.192000753E1,-2.425214699E0,1.312763552E1
6.135819375E0,5.468761636E0,1.197511052E1,-3.451561114E0,1.360969874E1
6.145860375E0,5.751518367E0,1.150680585E1,-1.576998593E0,1.296045790E1
6.155902375E0,5.767323976E0,1.040370640E1,2.591170228E-1,1.189816264E1
6.165943375E0,5.761265675E0,9.101123920E0,8.934172026E-1,1.080836866E1
6.175984375E0,5.758524501E0,8.401580581E0,9.696904763E-1,1.023168903E1
6.186026375E0,5.638275341E0,8.175199780E0,7.441388834E-1,9.958804293E0
6.196067375E0,5.750886283E0,8.307501805E0,4.380056055E-1,1.011331440E1
6.206108375E0,5.788658711E0,8.234662455E0,1.350098340E-1,1.006660137E1
6.216149375E0,5.877211869E0,8.214510611E0,-1.435655073E-1,1.010150558E1
6.226191375E0,5.968081693E0,8.197533805E0,-4.491059232E-1,1.014984018E1
6.236232375E0,6.214550019E0,7.980578715E0,-1.082784471E0,1.017264424E1
6.246273375E0,6.673575743E0,7.231186109E0,-3.982949640E0,1.061558070E1
6.256315375E0,6.184416393E0,4.951502906E0,-1.004254377E1,1.279128893E1
6.266356375E0,5.523037831E0,7.236712312E0,-1.123917075E-1,9.104206932E0
6.276397375E0,5.536192896E0,7.570489508E0,5.217394513E-1,9.393293098E0
6.286439375E0,4.847150572E0,7.377913799E0,4.367004339E-1,8.838505980E0
6.296480375E0,-6.682417903E0,-3.925247562E-1,4.080079494E0,7.839377105E0
6.306521375E0,-2.944854269E1,-2.636198934E1,1.680374939E1,4.294807495E1
6.316563375E0,-5.677798894E1,-6.103430351E1,2.786329938E1,8.789362710E1
6.326604375E0,-7.382794587E1,-8.740179391E1,2.364373572E1,1.168275028E2
6.336645375E0,-6.107860202E1,-8.768974823E1,-9.522979479E0,1.072882785E2
6.346686375E0,-1.356597301E1,-5.841526078E1,-4.085958518E1,7.256641108E1
6.356728375E0,1.032940115E1,-3.006493278E1,-5.140980994E1,6.044472904E1
6.366769375E0,-9.205640561E0,-1.648487499E1,1.166150213E1,2.219201554E1
6.376810375E0,-8.424091777E0,-8.016919160E0,1.314789007E1,1.755287237E1
6.386852375E0,-2.051693832E0,-8.936030710E-1,5.235275298E0,5.693512227E0
6.396893375E0,2.815800372E0,4.116124654E0,1.245358701E0,5.140246317E0
6.406934375E0,6.978578791E0,8.147097477E0,-4.799650716E0,1.175212348E1
6.416976375E0,9.899102211E0,1.100464814E1,-1.255411468E1,1.940876865E1
6.427017375E0,1.029094401E1,1.144761215E1,-1.443740110E1,2.110426267E1
6.437058375E0,8.446154491E0,1.064510285E1,-8.442655517E0,1.599794276E1
6.447099375E0,6.926567223E0,1.011486096E1,-4.190453875E0,1.295560301E1
6.457141375E0,6.054244509E0,1.016026927E1,-3.284900265E0,1.227499564E1
6.467182375E0,5.249843636E0,1.086679418E1,-3.417235034E0,1.254294899E1
6.477223375E0,4.730440732E0,1.131672339E1,-2.360140890E0,1.249061900E1
6.487265375E0,3.856167679E0,1.168374026E1,2.050034173E-1,1.230535826E1
6.497306375E0,2.809963974E0,1.293462925E1,1.298264308E0,1.329985044E1
6.507347375E0,2.164767289E0,1.370930697E1,2.310472301E0,1.407016693E1
6.517389375E0,2.163594629E0,1.361537029E1,3.901583880E0,1.432765879E1
6.527430375E0,2.972986393E0,1.275195522E1,5.013318501E0,1.402085491E1
6.537471375E0,3.445297576E0,1.291119946E1,6.189075454E0,1.472663580E1
6.547512375E0,3.856421741E0,1.307201192E1,6.601308836E0,1.514353865E1
6.557554375E0,4.055448098E0,1.291171635E1,5.816128346E0,1.473045917E1
6.567595375E0,3.974682847E0,1.276919983E1,4.507113347E0,1.411257024E1
6.577636375E0,3.714886377E0,1.248697110E1,3.232152532E0,1.342280291E1
6.587678375E0,3.752344226E0,1.198562966E1,1.744837217E0,1.267989994E1
6.597719375E0,4.135183069E0,1.171699103E1,3.450687540E-1,1.243007202E1
6.607760375E0,4.367347351E0,1.138967676E1,-7.840490538E-1,1.222346893E1
6.617802375E0,5.434915613E0,1.115139337E1,-3.496807453E0,1.288873711E1
6.627843375E0,7.707209104E0,1.096573609E1,-7.807871845E0,1.551165055E1
6.637884375E0,8.052243360E0,1.018129352E1,-6.239473191E0,1.440237434E1
6.647925375E0,6.863329001E0,9.433807687E0,-2.527504574E0,1.193692975E1
6.657967375E0,6.356232732E0,9.103831181E0,-1.208982003E0,1.116884391E1
6.668008375E0,6.190982231E0,8.680478734E0,-7.795829505E-1,1.069049679E1
6.678049375E0,6.179352704E0,8.406551884E0,-7.423361868E-1,1.045971211E1
6.688091375E0,6.211546304E0,8.234216897E0,-9.817510164E-1,1.036095895E1
6.698132375E0,6.208280050E0,8.034020512E0,-1.365789855E0,1.024468685E1
6.708173375E0,6.302664635E0,7.598360846E0,-2.627657438E0,1.021583343E1
6.718215375E0,6.704328005E0,1.453096824E0,-2.358126641E1,2.455881980E1
6.728256375E0,5.520989551E0,1.207978621E0,-1.690784036E1,1.782738353E1
6.738297375E0,5.761368002E0,7.597269756E0,4.653734618E0,1.060985932E1
6.748339375E0,5.739959006E0,6.763577256E0,2.286357214E0,9.160815248E0
6.758380375E0,5.304308111E0,6.577308939E0,3.657868423E0,9.207425200E0
6.768421375E0,1.005105965E0,4.227922248E0,6.971828181E0,8.215348606E0
6.778462375E0,-1.599042742E1,-8.332957658E0,1.655529184E1,2.447875897E1
6.788504375E0,-3.963163247E1,-3.331074323E1,2.571128311E1,5.780434228E1
6.798545375E0,-6.676375156E1,-6.661114859E1,2.543270772E1,9.767940551E1
6.808586375E0,-8.341345021E1,-8.985159016E1,1.253820323E1,1.232408961E2
6.818628375E0,-6.561370248E1,-7.979407986E1,-1.060721289E1,1.038497284E2
6.828669375E0,-1.790619396E1,-4.377531096E1,-3.426893114E1,5.840607223E1
6.838710375E0,1.206209955E1,-2.219134349E1,-7.267242379E1,7.693653977E1
6.848752375E0,-3.541251554E0,-1.280340019E1,-1.024461301E1,1.677556601E1
6.858793375E0,-4.202575738E0,-7.253938209E0,1.137038914E1,1.412681888E1
6.868834375E0,9.685035646E-1,-2.198605710E0,5.151129187E0,5.683836568E0
6.878876375E0,6.100659707E0,2.853718981E0,3.787650883E-1,6.745755990E0
6.888917375E0,9.765371711E0,5.889360629E0,-3.218655989E0,1.184933752E1
6.898958375E0,1.067816651E1,6.770019718E0,-4.269591846E0,1.334487998E1
6.909000375E0,1.052140266E1,7.384452741E0,-4.783932230E0,1.371554096E1
6.919041375E0,1.021135522E1,7.825749123E0,-4.764764473E0,1.371922393E1
6.929082375E0,9.772670206E0,8.240306187E0,-4.394406511E0,1.351734211E1
6.939123375E0,9.294086130E0,8.776042119E0,-4.299820781E0,1.348656409E1
6.949165375E0,8.742140547E0,8.964732937E0,-3.903201805E0,1.311588511E1
6.959206375E0,8.330967266E0,9.214676263E0,-3.213955413E0,1.283139835E1
6.969247000E0,7.788136908E0,9.274548243E0,-2.170088255E0,1.230372320E1
6.979289000E0,7.393711807E0,9.074398636E0,-9.846255076E-1,1.174653874E1
6.989330000E0,7.134793589E0,9.304701750E0,-1.929867679E-1,1.172689209E1
6.999371000E0,6.849555885E0,9.769919676E0,3.232609785E-1,1.193617376E1
7.009413000E0,7.067962838E0,1.016818874E1,9.936992168E-1,1.242318796E1
7.019454000E0,7.588986590E0,1.024066381E1,2.278847051E0,1.294824531E1
7.029495000E0,8.221644214E0,1.017704493E1,3.169602820E0,1.346157714E1
7.039536000E0,8.235962875E0,9.827768519E0,3.314804095E0,1.324401921E1
7.049578000E0,8.181593710E0,9.727883458E0,3.914799757E0,1.330021990E1
7.059619000E0,8.085972438E0,1.000007661E1,4.440082329E0,1.360510248E1
7.069660000E0,8.009008462E0,1.030898735E1,4.897572867E0,1.394294290E1
7.079702000E0,7.767955243E0,1.056953226E1,5.249298091E0,1.412838531E1
7.089743000E0,7.335802737E0,1.067844250E1,4.962004505E0,1.387316203E1
7.099784000E0,6.984075758E0,1.080385241E1,4.004988381E0,1.347369560E1
7.109826000E0,6.583211119E0,1.069425103E1,2.496973630E0,1.280392718E1
7.119867000E0,6.110654352E0,1.051418252E1,6.256111443E-1,1.217700784E1
7.129908000E0,5.598453464E0,1.029530019E1,-1.354024380E0,1.179700255E1
7.139949000E0,5.053904024E0,1.007631027E1,-2.169505141E0,1.147957870E1
7.149991000E0,4.811097810E0,9.862250719E0,-1.071760569E0,1.102539442E1
7.160032000E0,4.862993603E0,9.844699717E0,3.215677710E-1,1.098500001E1
7.170073000E0,5.102582095E0,9.838115752E0,1.101510179E0,1.113724339E1
7.180115000E0,5.256462684E0,9.834210981E0,1.214806999E0,1.121685614E1
7.190156000E0,5.330805354E0,9.703001801E0,8.188335550E-1,1.110118093E1
7.200197000E0,5.502370262E0,9.172467552E0,9.160017807E-2,1.069666444E1
7.210239000E0,5.116953966E0,7.498579865E0,-3.929256413E0,9.891965115E0
7.220280000E0,2.573084790E0,2.206853208E0,-1.871661454E1,1.902111001E1
7.230321000E0,4.990562891E0,4.296112477E0,-5.117717028E0,8.339863786E0
7.240363000E0,5.777808033E0,6.580254182E0,3.502753487E0,9.431441711E0
7.250404000E0,4.777502047E0,5.688580107E0,2.634106332E0,7.881813599E0
7.260445000E0,3.441970510E0,5.237546942E0,5.014439996E0,8.026435538E0
7.270486000E0,2.743390793E-1,-3.027892917E-1,1.007969347E1,1.008797124E1
7.280528000E0,-3.006262897E1,-2.575335266E1,2.194202991E1,4.525980016E1
7.290569000E0,-7.297070196E1,-6.967446745E1,3.329796356E1,1.062450429E2
7.300610000E0,-9.301181843E1,-1.017212321E2,2.247454987E1,1.396549778E2
7.310652000E0,-6.046085070E1,-8.880046660E1,-1.386042709E1,1.083196602E2
7.320693000E0,3.411650358E0,-4.147348201E1,-8.083756928E1,9.091975405E1
7.330734000E0,4.316722158E0,-2.244541670E1,-3.500778297E1,4.180879919E1
7.340776000E0,-7.051430420E0,-1.410913958E1,1.791797259E1,2.387141035E1
7.350817000E0,-1.860173546E0,-6.210556371E0,9.997020854E0,1.191518703E1
7.360858000E0,3.653923892E0,4.888009161E-1,2.195336532E0,4.290639653E0
7.370900000E0,7.858932656E0,5.266535683E0,-2.803528821E0,9.867066152E0
7.380941000E0,1.047846539E1,8.089929834E0,-6.022856070E0,1.454372706E1
7.390982000E0,1.050114206E1,9.303734620E0,-6.697626511E0,1.554643571E1
7.401023000E0,8.997279124E0,9.731158483E0,-6.122468652E0,1.459901022E1
7.411065000E0,8.016793445E0,9.654505579E0,-4.748498688E0,1.341740269E1
7.421106000E0,7.574646878E0,9.709533725E0,-3.642628241E0,1.284208165E1
7.431147000E0,7.144022834E0,1.003016170E1,-3.347464303E0,1.276114114E1
7.441189000E0,6.654471720E0,1.056748808E1,-3.511305624E0,1.297239628E1
7.451230000E0,6.129269548E0,1.081237882E1,-3.328121713E0,1.286669636E1
7.461271000E0,5.819595745E0,1.084173185E1,-1.993774238E0,1.246539128E1
7.471313000E0,5.785615236E0,1.076796337E1,-5.071372727E-1,1.223436010E1
7.481354000E0,5.849818248E0,1.099287068E1,3.993543041E-1,1.245885481E1
7.491395000E0,5.924636881E0,1.118080370E1,1.354320395E0,1.272579574E1
7.501437000E0,6.186024962E0,1.104846366E1,2.469385589E0,1.290090382E1
7.511478000E0,6.617942410E0,1.063932229E1,3.529518532E0,1.301729010E1
7.521519000E0,6.754565527E0,1.067747888E1,4.212442037E0,1.331830990E1
7.531560000E0,6.714480525E0,1.052146113E1,4.929071817E0,1.341943151E1
7.541602000E0,6.490949657E0,1.042698416E1,5.736368816E0,1.355582360E1
7.551643000E0,6.273805702E0,1.046757319E1,6.208794605E0,1.369232840E1
7.561684000E0,6.021673763E0,1.053466415E1,6.097344335E0,1.358003356E1
7.571726000E0,5.706122339E0,1.068090301E1,5.814903939E0,1.343334021E1
7.581767000E0,5.263082902E0,1.075620111E1,5.347690358E0,1.311463672E1
7.591808000E0,4.908087330E0,1.064860065E1,4.702474084E0,1.263310253E1
7.601850000E0,4.845763612E0,1.028477988E1,3.846687881E0,1.200229685E1
7.611891000E0,4.968397851E0,9.802643618E0,2.950936835E0,1.137914001E1
7.621932000E0,5.095459601E0,9.239084880E0,2.086710760E0,1.075540607E1
7.631974000E0,5.294928008E0,8.620116758E0,1.467880340E0,1.022239445E1
7.642015000E0,5.532879279E0,8.223542220E0,1.086829282E0,9.970987797E0
7.652056000E0,5.791015139E0,8.042743973E0,7.681604147E-1,9.940405293E0
7.662097000E0,5.979573811E0,7.971855839E0,3.897848971E-1,9.972849179E0
7.672139000E0,6.104867948E0,7.850721411E0,-2.001889296E-1,9.947025432E0
7.682180000E0,6.188517045E0,7.673217486E0,-9.630492818E-1,9.904719770E0
7.692221000E0,6.062841085E0,7.412484292E0,-1.948197677E0,9.772330305E0
7.702263000E0,5.604476681E0,7.413102928E0,-1.334680767E0,9.388590237E0
7.712304000E0,4.726615484E0,5.535552626E0,-7.198898953E0,1.023754770E1
7.722345000E0,4.245783738E0,4.033156173E0,-9.051738921E0,1.078086294E1
7.732387000E0,4.190762608E0,6.182825366E0,4.653452783E0,8.800252470E0
7.742428000E0,-1.113575090E1,-5.294277213E0,7.643529418E0,1.450716586E1
7.752469000E0,-3.528794880E1,-3.120797924E1,1.735452787E1,5.020315664E1
7.762511000E0,-6.814210869E1,-6.276605232E1,2.218848069E1,9.526412219E1
7.772552000E0,-8.952795379E1,-9.128036900E1,-4.283250357E0,1.279285211E2
7.782593000E0,-5.986169353E1,-7.516725296E1,-9.954712740E0,9.660556182E1
7.792635000E0,-1.207730699E0,-3.358950807E1,-4.503145660E1,5.619204347E1
7.802676000E0,-3.654184678E0,-1.827885689E1,-1.206843208E1,2.220623173E1
7.812717000E0,-9.538154758E0,-1.064833402E1,1.896077906E1,2.374604296E1
7.822758000E0,-2.232564585E0,-3.147697688E0,7.251575350E0,8.214480532E0
7.832800000E0,3.567611387E0,2.299836216E0,3.254861948E0,5.348946058E0
7.842841000E0,9.133443820E0,6.694086022E0,-2.338544784E0,1.156284461E1
7.852882000E0,1.188926287E1,8.359409877E0,-5.123723288E0,1.541060821E1
7.862924000E0,1.174380753E1,8.329539376E0,-5.109031574E0,1.527744891E1
7.872965000E0,1.105062596E1,8.470059078E0,-5.117057462E0,1.483382999E1
7.883006000E0,1.028808940E1,8.546353548E0,-4.986599064E0,1.427414140E1
7.893048000E0,9.671763636E0,8.715290717E0,-4.507693391E0,1.377746725E1
7.903089000E0,9.025094914E0,9.001414860E0,-3.870246313E0,1.332128426E1
7.913130000E0,8.192162552E0,9.224566829E0,-3.035579667E0,1.270507396E1
7.923171000E0,7.346427128E0,9.177447041E0,-1.750479780E0,1.188527262E1
7.933213000E0,6.769792262E0,8.994482401E0,-5.633780587E-1,1.127156581E1
7.943254000E0,6.402656701E0,8.896590071E0,2.329074633E-1,1.096346540E1
7.953295000E0,6.012234018E0,8.890358108E0,8.567794995E-1,1.076659168E1
7.963337000E0,5.699964636E0,9.067659720E0,1.404265118E0,1.080203732E1
7.973378000E0,5.527098137E0,9.356852481E0,1.908055372E0,1.103359314E1
7.983419000E0,5.513191704E0,9.479839307E0,2.223491460E0,1.118957329E1
7.993461000E0,5.628277772E0,9.566699111E0,2.640371039E0,1.140924195E1
8.003502000E0,5.873804111E0,9.654358814E0,3.283702755E0,1.176821663E1
8.013543000E0,6.001600272E0,9.473689790E0,3.853864753E0,1.185842644E1
8.023585000E0,5.904194430E0,9.251962203E0,3.884946213E0,1.164264246E1
8.033626000E0,5.753763698E0,9.047562255E0,3.613741826E0,1.131473859E1
8.043667000E0,5.782376463E0,8.960081477E0,3.924448540E0,1.136310846E1
8.053709000E0,5.661983462E0,8.856519102E0,4.156817475E0,1.130376569E1
8.063750000E0,5.507938566E0,8.821422359E0,4.386843138E0,1.128712862E1
8.073791000E0,5.356811430E0,8.780176685E0,4.728934489E0,1.132032476E1
8.083832000E0,5.211235056E0,8.651631496E0,4.705569308E0,1.114226552E1
8.093874000E0,5.004982710E0,8.571546861E0,4.298999540E0,1.081677700E1
8.103915000E0,4.917767980E0,8.524086181E0,3.762118724E0,1.053556000E1
8.113956000E0,4.832278179E0,8.516327510E0,3.340528336E0,1.034591109E1
8.123998000E0,4.654743848E0,8.618259097E0,2.888732693E0,1.021204224E1
8.134039000E0,4.631209390E0,8.649807165E0,2.362582687E0,1.009202960E1
8.144080000E0,4.618294060E0,8.660795252E0,1.859944628E0,9.989865286E0
8.154122000E0,4.740464614E0,8.664982443E0,1.423102508E0,9.978935126E0
8.164163000E0,4.435701887E0,8.438829099E0,-1.314100907E0,9.623728435E0
8.174204000E0,3.092177791E0,7.305416511E0,-1.099344020E1,1.355678432E1
8.184245000E0,4.358798722E0,6.998562235E0,-7.470068257E0,1.112568737E1
8.194287000E0,5.521794713E0,6.964521500E0,-1.103093751E0,8.956092473E0
8.204328000E0,4.560190862E0,6.392036403E0,1.032038314E0,7.919505866E0
8.214369000E0,1.372497634E0,4.219547866E0,-7.669722605E-1,4.502952409E0
8.224411000E0,-6.305861308E0,-1.995161782E0,5.365165347E0,8.516428628E0
8.234452000E0,-2.082025094E1,-1.885549760E1,1.082545671E1,3.010320833E1
8.244493000E0,-3.978568555E1,-4.009790348E1,1.541960586E1,5.855345321E1
8.254535000E0,-6.205019876E1,-6.561727162E1,1.212751118E1,9.112041499E1
8.264576000E0,-6.958312459E1,-8.740345920E1,-2.182422021E1,1.138308943E2
8.274617000E0,-2.736638662E1,-5.897663558E1,-1.674918668E1,6.713939168E1
8.284659000E0,-1.860425561E1,-2.736575980E1,1.703667557E1,3.721896627E1
8.294700000E0,-1.227634855E1,-1.482372079E1,1.240472533E1,2.289822356E1
8.304741000E0,-4.775745544E0,-6.770899140E0,7.198378551E0,1.097585871E1
8.314783000E0,-2.644876903E-1,-1.172102444E0,5.019881415E0,5.161684541E0
8.324824000E0,3.403248494E0,2.931101033E0,2.951337662E0,5.374369505E0
8.334865000E0,5.876565751E0,5.845697715E0,1.420676937E0,8.409787736E0
8.344907000E0,7.106160944E0,7.368300977E0,4.528270912E-1,1.024667922E1
8.354948000E0,7.554754066E0,8.159359673E0,-1.349524509E0,1.120136937E1
8.364989000E0,8.972132004E0,9.249940821E0,-6.758983684E0,1.455144042E1
8.375030000E0,1.034105699E1,9.504390596E0,-9.343303313E0,1.686914986E1
8.385072000E0,9.279951071E0,8.829879187E0,-6.354756310E0,1.429920229E1
8.395113000E0,8.887180147E0,8.947960199E0,-6.775937101E0,1.431646906E1
8.405154000E0,9.065716690E0,9.597726191E0,-9.650397910E0,1.635340169E1
8.415196000E0,8.124452380E0,1.006857791E1,-1.035136797E1,1.656906172E1
8.425237000E0,6.502037147E0,1.009414194E1,-7.298160117E0,1.405102593E1
8.435278000E0,5.015646277E0,9.854265761E0,-2.690312108E0,1.137985239E1
8.445320000E0,4.165090408E0,9.587608169E0,9.125633986E-1,1.049299673E1
8.455361000E0,3.988087589E0,9.635901493E0,2.110806259E0,1.064006312E1
8.465402000E0,4.006397560E0,9.757071589E0,2.882348703E0,1.093433132E1
8.475444000E0,4.033327204E0,1.005859203E1,3.779634351E0,1.147730970E1
8.485485000E0,4.193148857E0,1.036285424E1,4.363608642E0,1.200051356E1
8.495526000E0,4.293730614E0,1.039854564E1,4.702941277E0,1.219358564E1
8.505567000E0,4.413362015E0,1.017162222E1,4.717721869E0,1.204975363E1
8.515609000E0,4.364462627E0,9.881200376E0,4.678634694E0,1.177184257E1
8.525650000E0,4.186665172E0,9.743508972E0,4.870109664E0,1.166970867E1
8.535691000E0,3.991583346E0,9.670455614E0,4.934338989E0,1.156711505E1
8.545733000E0,3.843480975E0,9.721717569E0,5.082630225E0,1.162399538E1
8.555774000E0,3.576145983E0,9.727520345E0,5.149028283E0,1.157263861E1
8.565815000E0,3.436703923E0,9.672119147E0,5.100539078E0,1.146195103E1
8.575857000E0,3.458130753E0,9.583615106E0,5.121636416E0,1.140331120E1
8.585898000E0,3.310007624E0,9.396204827E0,4.815472112E0,1.106497118E1
8.595939000E0,3.202214496E0,9.307282126E0,4.316447047E0,1.074762268E1
8.605980000E0,3.373536453E0,9.114782431E0,3.803556772E0,1.043681230E1
8.616022000E0,3.602961314E0,8.900367957E0,3.291344189E0,1.015041017E1
8.626063000E0,3.650094843E0,8.781032717E0,2.834676354E0,9.922959134E0
8.636104000E0,3.755473071E0,8.785432747E0,2.422431278E0,9.856753007E0
8.646146000E0,3.939088798E0,8.726302194E0,2.115653601E0,9.805139504E0
8.656187000E0,4.186868655E0,8.615555930E0,1.873574195E0,9.760530384E0
8.666228000E0,4.360406706E0,8.501784316E0,1.668284447E0,9.699312150E0
8.676270000E0,4.440190502E0,8.392289940E0,1.494700641E0,9.611449014E0
8.686311000E0,4.390413740E0,8.338144138E0,1.396825852E0,9.526358325E0
8.696352000E0,4.320573427E0,8.262926141E0,1.575036414E0,9.456428652E0
8.706394000E0,4.257083190E0,8.173780661E0,1.782008990E0,9.386639634E0
8.716435000E0,2.472951221E0,6.793040791E0,2.059573102E0,7.516829937E0
8.726476000E0,-6.176674095E0,-1.168597623E0,2.566980296E0,6.790162820E0
8.736518000E0,-2.082324004E1,-2.084362577E1,4.619250079E0,2.982283575E1
8.746559000E0,-4.284737655E1,-5.049517443E1,5.834185717E0,6.648080957E1
8.756600000E0,-6.863633875E1,-8.586167473E1,-2.054699886E0,1.099426941E2
8.766642000E0,-6.990917936E1,-9.881991855E1,-4.719458492E0,1.211401789E2
8.776683000E0,-1.562210780E1,-6.017315834E1,-4.582180369E1,7.723015557E1
8.786724000E0,-5.429012264E0,-2.950109513E1,4.754254103E-1,3.000024695E1
8.796765000E0,-1.316533816E1,-1.829599625E1,2.255599457E1,3.188796793E1
8.806807000E0,-5.014853395E0,-7.386073589E0,7.286213086E0,1.152352979E1
8.816848000E0,1.742605335E0,2.627797186E-1,2.305195774E0,2.901664021E0
8.826889000E0,6.093499206E0,5.083883868E0,-3.104504306E0,8.521417415E0
8.836931000E0,8.691132361E0,8.164861318E0,-6.151735135E0,1.341806943E1
8.846972000E0,8.520247484E0,9.090249853E0,-5.059281124E0,1.344706604E1
8.857013000E0,7.807328639E0,9.269939468E0,-4.048076513E0,1.277783556E1
8.867055000E0,7.388738165E0,9.236076488E0,-2.782030363E0,1.215064827E1
8.877096000E0,6.960286362E0,9.504106421E0,-1.709679079E0,1.190363926E1
8.887137000E0,6.596970202E0,1.001152780E1,-2.378985296E0,1.222334961E1
8.897179000E0,6.691502722E0,1.097284279E1,-4.934976336E0,1.376711586E1
8.907220000E0,6.759743822E0,1.167581377E1,-5.912559457E0,1.473014335E1
8.917261000E0,6.566984510E0,1.126934574E1,-2.304835585E0,1.324521446E1
8.927302000E0,6.472658982E0,1.074792730E1,-3.103398013E-1,1.255028153E1
8.937344000E0,6.215725309E0,1.066576106E1,5.547616017E-1,1.235724324E1
8.947385000E0,6.073278365E0,1.081873826E1,1.443130391E0,1.249049370E1
8.957426000E0,6.548159984E0,1.074396523E1,2.299178989E0,1.279052040E1
8.967468000E0,6.946882204E0,1.029261749E1,2.945895073E0,1.276226645E1
8.977509458E0,7.130730944E0,1.021163121E1,3.387148478E0,1.290726581E1
8.987550458E0,7.189964992E0,1.039065775E1,3.939614756E0,1.323563106E1
8.997592458E0,7.268092564E0,1.062012939E1,4.340680832E0,1.358137798E1
9.007633458E0,7.295158741E0,1.052842517E1,4.693817282E0,1.364181067E1
9.017674458E0,7.257379296E0,1.020167223E1,5.075177364E0,1.350929665E1
9.027716458E0,7.079587103E0,9.732689284E0,5.196341028E0,1.310907145E1
9.037757458E0,6.639298196E0,9.440861768E0,5.281418016E0,1.269265645E1
9.047798458E0,6.393256132E0,9.234718764E0,5.371728846E0,1.245027009E1
9.057839458E0,6.145137137E0,9.066966825E0,5.387792902E0,1.220659290E1
9.067881458E0,5.945892679E0,8.902589314E0,5.144685556E0,1.187760606E1
9.077922458E0,5.825611360E0,8.681158181E0,4.662437907E0,1.144720849E1
9.087963458E0,5.797803172E0,8.375023112E0,4.051886559E0,1.096235916E1
9.098005458E0,5.769620177E0,7.974212852E0,3.465127531E0,1.043473509E1
9.108046458E0,5.713586310E0,7.681177885E0,2.972735840E0,1.002410697E1
9.118087458E0,5.671965244E0,7.548056665E0,2.418728529E0,9.746517165E0
9.128129458E0,5.664439293E0,7.511308084E0,1.917076018E0,9.601083381E0
9.138170458E0,5.701576129E0,7.529303475E0,1.362678113E0,9.542288657E0
9.148211458E0,5.739988242E0,7.519509389E0,7.303453016E-1,9.488092049E0
9.158253458E0,6.009741350E0,7.595596867E0,1.120794296E0,9.750192958E0
9.168294458E0,6.293040118E0,7.568368723E0,1.321420890E0,9.931198932E0
9.178335458E0,3.401019536E0,4.275938414E0,-1.958499272E1,2.033279428E1
9.188376458E0,2.905399597E0,1.002428525E0,-2.284373605E1,2.304956586E1
9.198418458E0,7.777733542E0,4.563852389E0,7.992592989E0,1.205003860E1
9.208459458E0,6.496615609E0,4.110913031E0,6.896418979E0,1.032793373E1
9.218500458E0,4.094808630E0,3.055597025E0,9.519067107E0,1.080355356E1
9.228542458E0,-3.034237146E-1,-2.128027478E0,1.641296477E1,1.655312597E1
9.238583458E0,-1.945417296E1,-1.840733659E1,2.812459741E1,3.883668196E1
9.248624458E0,-5.099655212E1,-4.763531997E1,2.808331607E1,7.522263408E1
9.258666458E0,-8.298897042E1,-8.757928731E1,-1.189631344E1,1.212387028E2
9.268707458E0,-6.843951679E1,-9.845632464E1,-3.810960224E1,1.258171574E2
9.278748458E0,-3.009207555E1,-5.181968104E1,1.160657221E1,6.103707785E1
9.288790458E0,-1.358025191E1,-2.297493354E1,1.076912112E1,2.877924222E1
9.298831458E0,8.339918768E-1,-7.797666700E0,-5.048673105E0,9.326749087E0
9.308872458E0,6.550840933E0,1.277723039E0,-6.387605968E0,9.238376648E0
9.318914458E0,4.074493648E0,2.054605161E0,-2.003796365E0,4.983783777E0
9.328955458E0,5.100924409E0,4.473053316E0,-5.014183888E0,8.436212175E0
9.338996458E0,6.751207471E0,6.858489261E0,-8.110076416E0,1.258534929E1
9.349038458E0,7.279777055E0,8.021770595E0,-8.021085302E0,1.347893790E1
9.359079458E0,7.365979632E0,8.809330317E0,-7.773849821E0,1.386703637E1
9.369120458E0,7.316139720E0,9.510548299E0,-8.146025097E0,1.450290158E1
9.379161458E0,6.765584605E0,9.970812464E0,-8.039033915E0,1.448503719E1
9.389203458E0,5.729470271E0,9.975406036E0,-6.034347603E0,1.299033896E1
9.399244458E0,4.353531258E0,9.812756377E0,-2.761015470E0,1.108452203E1
9.409285458E0,3.480670307E0,9.761842917E0,-3.806139779E-1,1.037080083E1
9.419327458E0,3.043216715E0,9.822662730E0,6.257549858E-1,1.030230267E1
9.429368458E0,2.717238244E0,9.938741655E0,8.143124878E-1,1.033562162E1
9.439409458E0,2.179473913E0,1.025510877E1,1.030501519E0,1.053467113E1
9.449451458E0,1.394716177E0,1.079658432E1,1.318872235E0,1.096589669E1
9.459492458E0,9.846304777E-1,1.115088349E1,1.860322065E0,1.134779706E1
9.469533458E0,1.229296984E0,1.150210469E1,2.439337918E0,1.182201137E1
9.479575458E0,1.680102400E0,1.181144578E1,2.884440837E0,1.227407815E1
9.489616458E0,2.289764387E0,1.184928896E1,2.805966525E0,1.239040427E1
9.499657458E0,2.588683699E0,1.183830088E1,2.641114805E0,1.240250533E1
9.509698458E0,2.424153576E0,1.202913061E1,2.807694962E0,1.258807589E1
9.519740458E0,1.814540998E0,1.195083054E1,2.943084902E0,1.244092675E1
9.529781458E0,1.192722943E0,1.153058998E1,3.033130853E0,1.198236104E1
9.539822458E0,7.898793125E-1,1.142969979E1,3.140006553E0,1.187946075E1
9.549864458E0,7.361805305E-1,1.134014032E1,3.019805049E0,1.175839984E1
9.559905458E0,1.135450635E0,1.108565897E1,2.666464823E0,1.145823362E1
9.569946458E0,2.075316291E0,1.087404590E1,2.363987188E0,1.131990492E1
9.579988458E0,3.078683587E0,1.060061138E1,2.086452606E0,1.123407935E1
9.590029458E0,3.703217089E0,1.026920991E1,1.886670789E0,1.107835799E1
9.600070458E0,4.054686205E0,9.862762935E0,1.747177273E0,1.080588735E1
9.610112458E0,4.203566256E0,9.454353633E0,1.611526694E0,1.047147507E1
9.620153458E0,4.285980130E0,9.140824175E0,1.496480387E0,1.020606417E1
9.630194458E0,4.393234144E0,8.935156551E0,1.168408320E0,1.002510383E1
9.640235458E0,4.634349929E0,8.755065233E0,9.094899559E-1,9.947639844E0
9.650277458E0,4.784957247E0,8.612494327E0,7.477816987E-1,9.880792067E0
9.660318458E0,4.942767166E0,8.402615538E0,6.636252089E-1,9.771145970E0
9.670359458E0,4.889213687E0,8.143624231E0,7.159073567E-1,9.525520953E0
9.680401458E0,4.515779505E0,7.908278478E0,1.084252707E0,9.171081559E0
9.690442458E0,3.807204557E0,7.561597647E0,1.563775700E0,8.609178820E0
9.700483458E0,1.707957366E0,6.102674072E0,2.049433883E0,6.660324950E0
9.710525458E0,-4.379725907E0,1.187815082E0,2.798645811E0,5.331540309E0
9.720566458E0,-1.437282679E1,-1.112594044E1,4.579237875E0,1.874390888E1
9.730607458E0,-2.796973507E1,-2.876207957E1,7.559943470E0,4.082543382E1
9.740649458E0,-4.571294725E1,-4.995659909E1,1.049978667E1,6.852430853E1
9.750690458E0,-6.306091571E1,-7.201447638E1,6.806122767E0,9.596398911E1
9.760731458E0,-6.292577487E1,-7.503776753E1,-5.264213169E0,9.807156387E1
9.770773458E0,-2.953848222E1,-4.310894823E1,5.126043463E0,5.250885326E1
9.780814458E0,1.050831542E1,-1.881043428E1,-5.996027759E1,6.371414301E1
9.790855458E0,2.362000304E0,-1.195470725E1,-1.697164634E1,2.089332071E1
9.800897458E0,-7.209800502E0,-1.010808404E1,8.898265883E0,1.527526504E1
9.810938458E0,-4.199885434E0,-5.660386003E0,2.940334371E0,7.637052676E0
9.820979458E0,-5.130785555E-1,-1.210197054E0,1.979433357E0,2.376127717E0
9.831020458E0,2.929179053E0,2.500726665E0,-5.968182850E-1,3.897424258E0
9.841062458E0,7.169005063E0,5.164091880E0,-5.007045608E0,1.015544112E1
9.851103458E0,1.006372004E1,6.630489365E0,-6.235596487E0,1.356924883E1
9.861144458E0,9.641585571E0,7.310860854E0,-4.058586883E0,1.276248354E1
9.871186458E0,8.324279221E0,7.955936794E0,-2.160585945E0,1.171574524E1
9.881227458E0,7.477987726E0,8.380110775E0,-1.493099965E0,1.133030911E1
9.891268458E0,6.934824661E0,8.728846318E0,-1.604290034E0,1.126313889E1
9.901310458E0,6.563175634E0,9.039370306E0,-1.623326814E0,1.128807689E1
9.911351458E0,6.268879423E0,9.234439268E0,-1.488159653E0,1.126003272E1
9.921392458E0,6.077749731E0,9.324850670E0,-1.230997939E0,1.119853730E1
9.931434458E0,6.014096357E0,9.420737990E0,-6.297369397E-1,1.119447310E1
9.941475458E0,5.831288422E0,9.629768933E0,-5.043480778E-1,1.126901688E1
9.951516458E0,5.867842290E0,9.885764712E0,-5.625688040E-1,1.150983930E1
9.961558458E0,6.229583795E0,9.934666146E0,-3.129827428E-1,1.173044176E1
9.971599458E0,6.816022688E0,9.914466355E0,3.954050581E-1,1.203790486E1
9.981640458E0,7.580994616E0,9.702792470E0,1.342587372E0,1.238621015E1
9.991681458E0,7.944140037E0,9.291232104E0,2.131514758E0,1.240885612E1
1.000172346E1,7.971804383E0,9.195737717E0,2.499678844E0,1.242415597E1
1.001176446E1,7.943441879E0,9.283022028E0,2.614549735E0,1.249434421E1
1.002180546E1,7.858331562E0,9.256525955E0,2.678568560E0,1.243428234E1
1.003184746E1,7.732730446E0,9.167263530E0,2.662217114E0,1.228500064E1
1.004188846E1,7.812173057E0,9.274002698E0,2.424062359E0,1.236580981E1
1.005192946E1,7.631237985E0,9.229480244E0,2.263437883E0,1.218779101E1
1.006197146E1,7.512971032E0,9.189560133E0,2.205546355E0,1.207299399E1
1.007201246E1,7.249187347E0,9.042953480E0,2.176115126E0,1.179242137E1
1.008205346E1,6.908014593E0,8.682287278E0,2.203791313E0,1.131191735E1
1.009209546E1,6.641044759E0,8.335718129E0,2.349037027E0,1.091355337E1
1.010213646E1,6.515393357E0,8.040350123E0,2.400543981E0,1.062356777E1
1.011217746E1,6.453294758E0,7.805872098E0,2.338119106E0,1.039439529E1
1.012221846E1,6.480159790E0,7.576577044E0,2.268034379E0,1.022452789E1
1.013226046E1,6.653603994E0,7.309848116E0,2.213504416E0,1.012935967E1
1.014230146E1,6.834666535E0,6.967016507E0,2.113113570E0,9.985851722E0
1.015234246E1,6.917481819E0,6.693678471E0,1.859428611E0,9.803793192E0
1.016238446E1,6.969587528E0,6.433920593E0,1.566115609E0,9.613698695E0
1.017242546E1,6.825567098E0,6.329282915E0,1.295478841E0,9.398215461E0
1.018246646E1,6.643433347E0,6.265554112E0,1.031948339E0,9.190064871E0
1.019250846E1,6.055468331E0,5.521166722E0,-8.916793370E-1,8.243001317E0
1.020254946E1,4.720028595E0,4.482984812E0,-4.172672492E0,7.732206573E0
1.021259046E1,5.244347838E0,3.239246374E0,1.139995383E0,6.268611552E0
1.022263246E1,-2.566535908E0,-9.504981165E0,7.326887487E0,1.227253249E1
1.023267346E1,-3.784241723E1,-4.306937895E1,1.738175017E1,5.990947491E1
1.024271446E1,-8.282278788E1,-8.889143992E1,2.060083768E1,1.232302593E2
1.025275646E1,-1.016075061E2,-1.126287030E2,1.018263721E1,1.520295897E2
1.026279746E1,-3.343966264E1,-5.894470510E1,-3.087810740E1,7.447245675E1
1.027283846E1,-1.090714231E1,-2.320689258E1,-1.282872682E1,2.867231851E1
1.028288046E1,-1.193862389E1,-1.446896320E1,1.050581048E1,2.150008582E1
1.029292146E1,-3.154223766E0,-4.115044674E0,1.494981015E0,5.396080843E0
1.030296246E1,4.564878575E0,3.856235214E0,-6.172412059E0,8.591119663E0
1.031300346E1,8.610333781E0,7.464301733E0,-7.065340362E0,1.340793357E1
1.032304546E1,9.528488141E0,8.282597344E0,-4.812147970E0,1.351111665E1
1.033308646E1,9.727955963E0,8.878308751E0,-4.917121863E0,1.405829225E1
1.034312746E1,9.720920593E0,9.079490976E0,-4.728089567E0,1.411695026E1
1.035316946E1,9.489849740E0,8.899927077E0,-3.641902601E0,1.351034436E1
1.036321046E1,9.053367956E0,8.733668516E0,-2.442222934E0,1.281424559E1
1.037325146E1,8.759847670E0,8.813273095E0,-1.677866718E0,1.253889750E1
1.038329346E1,8.285667717E0,8.956115311E0,-1.567090048E0,1.230122198E1
1.039333446E1,7.682116948E0,9.261276233E0,-1.535409833E0,1.213027789E1
1.040337546E1,6.822200856E0,9.416228033E0,-1.225560029E0,1.169229542E1
1.041341746E1,6.151790684E0,9.386247604E0,-9.162797427E-1,1.125991746E1
1.042345846E1,5.680047265E0,9.452195426E0,-5.564197990E-1,1.104158224E1
1.043349946E1,5.418020668E0,9.585688528E0,-9.448164940E-2,1.101132596E1
1.044354046E1,5.261210623E0,9.774365898E0,4.593900792E-1,1.110988772E1
1.045358246E1,5.238603534E0,9.972468395E0,1.097721183E0,1.131804244E1
1.046362346E1,5.527332610E0,1.014587342E1,1.848400762E0,1.170071531E1
1.047366446E1,5.884406868E0,1.012520819E1,2.656287160E0,1.200841149E1
1.048370646E1,5.965001380E0,1.025982279E1,3.030834067E0,1.224872076E1
1.049374746E1,5.897385932E0,1.035031196E1,3.254350609E0,1.234904516E1
1.050378846E1,5.679955464E0,1.024525504E1,3.537181600E0,1.223678056E1
1.051383046E1,5.293366801E0,1.001004026E1,3.867001400E0,1.196554796E1
1.052387146E1,4.884040655E0,9.785651025E0,3.948425048E0,1.162767730E1
1.053391246E1,4.540874586E0,9.585498494E0,3.844399281E0,1.128187614E1
1.054395446E1,4.222456271E0,9.437080373E0,3.679826765E0,1.097400328E1
1.055399546E1,3.943494675E0,9.398009278E0,3.575166282E0,1.080071954E1
1.056403646E1,3.752195999E0,9.498153956E0,3.504723706E0,1.079708255E1
1.057407846E1,3.687467029E0,9.578055573E0,3.301250249E0,1.078122511E1
1.058411946E1,3.742595455E0,9.629830914E0,2.859984857E0,1.072008291E1
1.059416046E1,3.848073379E0,9.610595913E0,2.313254699E0,1.060765619E1
1.060420146E1,3.927076279E0,9.493421804E0,1.771331975E0,1.042519077E1
1.061424346E1,3.983188207E0,9.342518032E0,1.144167810E0,1.022044771E1
1.062428446E1,4.021237208E0,9.197671975E0,5.738340497E-1,1.005469065E1
1.063432546E1,4.060154229E0,9.175426828E0,2.157398920E-1,1.003592814E1
1.064436746E1,3.928667306E0,9.090544553E0,-8.680390441E-1,9.941122615E0
1.065440846E1,3.619589041E0,8.872386106E0,-2.664046415E0,9.945742976E0
1.066444946E1,3.657922218E0,8.212569920E0,-3.539711398E0,9.662104140E0
1.067449146E1,3.072777314E0,6.425626318E0,-1.000767097E1,1.228348942E1
1.068453246E1,4.224130914E0,6.854472224E0,-2.303333874E0,8.374510038E0
1.069457346E1,4.323763375E0,7.209463118E0,2.170391725E0,8.682274380E0
1.070461546E1,1.241761494E0,3.961385109E0,2.666260463E0,4.933912083E0
1.071465646E1,-1.036679760E1,-8.985689943E0,8.671018524E0,1.622959268E1
1.072469746E1,-2.903682386E1,-3.413950185E1,1.939585985E1,4.883484521E1
1.073473946E1,-5.182527566E1,-6.368478556E1,2.347002430E1,8.539586143E1
1.074478046E1,-6.668127308E1,-8.680310452E1,1.888938807E1,1.110764607E2
1.075482146E1,-5.056953698E1,-7.767879580E1,-2.862648264E0,9.273331733E1
1.076486346E1,3.259001192E0,-4.283853088E1,-7.786990620E1,8.893527482E1
1.077490446E1,7.911083972E-1,-2.752697455E1,-2.452338149E1,3.687487519E1
1.078494546E1,-1.075300152E1,-1.933867642E1,2.122134187E1,3.065871488E1
1.079498646E1,-5.396459060E0,-1.014385730E1,6.971497228E0,1.343954556E1
1.080502846E1,-1.087535918E0,-2.589295610E0,3.553206772E0,4.529068833E0
1.081506946E1,2.173347493E0,2.094501883E0,1.775551472E0,3.501851009E0
1.082511046E1,4.657600213E0,5.647678249E0,1.094542637E0,7.401860099E0
1.083515246E1,6.371182308E0,8.478076780E0,-4.660967624E-1,1.061541314E1
1.084519346E1,6.399604454E0,9.399144223E0,-6.680011189E-1,1.139056955E1
1.085523446E1,6.022307017E0,8.952632124E0,3.969042476E-1,1.079700592E1
1.086527646E1,5.802798448E0,8.984759066E0,6.616861260E-1,1.071616507E1
1.087531746E1,5.749315136E0,9.390073437E0,2.536464409E-1,1.101328471E1
1.088535846E1,5.558149191E0,9.839268823E0,-4.069382159E-1,1.130795437E1
1.089540046E1,5.608145809E0,1.055520658E1,-1.806045871E0,1.208823755E1
1.090544146E1,6.020279202E0,1.199258083E1,-6.757459899E0,1.502428105E1
1.091548246E1,5.790019943E0,1.257580785E1,-6.784721957E0,1.541777306E1
1.092552446E1,5.217748854E0,1.188445997E1,-9.496394236E-1,1.301411183E1
1.093556546E1,5.453770545E0,1.136736730E1,1.006361801E0,1.264805979E1
1.094560646E1,6.356506382E0,1.070878955E1,1.528965178E0,1.254675582E1
1.095564746E1,7.180743933E0,1.048308235E1,2.612434212E0,1.297239035E1
1.096568946E1,8.235881014E0,1.064764989E1,3.820008205E0,1.399266404E1
1.097572975E1,8.685492137E0,1.052947065E1,4.400404000E0,1.434123709E1
1.098577075E1,8.633664172E0,1.013302709E1,4.664880289E0,1.410600947E1
1.099581275E1,8.113521010E0,9.842478944E0,5.019212494E0,1.370752016E1
1.100585375E1,7.709315856E0,9.656285471E0,5.444297470E0,1.350250995E1
1.101589475E1,7.566338570E0,9.263571850E0,5.801976914E0,1.329383988E1
1.102593675E1,7.026785576E0,8.958520271E0,6.022853147E0,1.288043326E1
1.103597775E1,6.548869836E0,8.863942142E0,6.041851920E0,1.256825927E1
1.104601875E1,6.282825032E0,8.691099617E0,6.051373526E0,1.231374129E1
1.105606075E1,6.119614041E0,8.532265851E0,5.853499070E0,1.202134302E1
1.106610175E1,6.081964989E0,8.293886563E0,4.964686038E0,1.142046233E1
1.107614275E1,6.069813890E0,8.089780730E0,4.025694833E0,1.088546792E1
1.108618475E1,5.979547498E0,7.963518879E0,3.345518057E0,1.050548011E1
1.109622575E1,5.956284351E0,7.900430346E0,3.036520192E0,1.034961728E1
1.110626675E1,6.020254644E0,7.811386022E0,2.767222874E0,1.024298492E1
1.111630775E1,6.083520348E0,7.726655774E0,2.474459803E0,1.014067949E1
1.112634975E1,6.113232390E0,7.679930674E0,2.289779005E0,1.007948577E1
1.113639075E1,6.123428180E0,7.691781226E0,2.156276254E0,1.006525700E1
1.114643175E1,6.172633084E0,7.676265054E0,2.165485619E0,1.008542376E1
1.115647375E1,6.200948226E0,7.624669223E0,2.123755210E0,1.005473400E1
1.116651475E1,6.112626618E0,7.421918775E0,1.991066977E0,9.819034076E0
1.117655575E1,5.769967502E0,6.779708555E0,6.760866487E-1,8.928273417E0
1.118659775E1,2.029858575E0,2.863339990E0,-1.885672786E1,1.918059507E1
1.119663875E1,3.647189069E0,2.646438695E0,-1.724489959E1,1.782392179E1
1.120667975E1,6.289225979E0,3.634668426E0,-6.684941561E0,9.871860091E0
1.121672175E1,6.878117194E0,3.089370543E0,3.870327004E0,8.475384216E0
1.122676275E1,-7.179421293E0,-1.154995830E1,1.347625801E1,1.914563023E1
1.123680375E1,-3.393121234E1,-3.902815772E1,2.798637391E1,5.880273284E1
1.124684575E1,-7.029809873E1,-7.408011991E1,3.548982743E1,1.081166717E2
1.125688675E1,-9.368150705E1,-1.076864212E2,-2.262681137E1,1.445149219E2
1.126692775E1,-4.959336070E1,-7.066735273E1,-3.089845804E1,9.169564263E1
1.127696975E1,-2.506411796E1,-2.759613074E1,2.325652141E1,4.393884647E1
1.128701075E1,-1.376058004E1,-1.231035361E1,1.092179192E1,2.145189754E1
1.129705175E1,-3.231377192E0,-1.477813590E0,3.083713946E0,4.704787271E0
1.130709375E1,4.776874641E0,6.160841004E0,-5.662990937E0,9.635557045E0
1.131713475E1,8.686855708E0,9.365579451E0,-6.056006860E0,1.413685819E1
1.132717575E1,9.691305031E0,1.007108286E1,-4.942470127E0,1.482484786E1
1.133721675E1,9.610328695E0,1.061914940E1,-6.222544917E0,1.561553127E1
1.134725875E1,9.396233479E0,1.083099168E1,-7.186015198E0,1.603865327E1
1.135729975E1,8.988848024E0,1.055301271E1,-6.147051516E0,1.516415868E1
1.136734075E1,8.283752754E0,1.013430529E1,-3.651632953E0,1.358893398E1
1.137738275E1,7.725945337E0,9.856512262E0,-1.978454533E0,1.267893322E1
1.138742375E1,7.201859983E0,1.005871366E1,-1.660052590E0,1.248199833E1
1.139746475E1,6.499147453E0,1.019444507E1,-1.281501510E0,1.215762617E1
1.140750675E1,5.315792043E0,1.032106536E1,-1.189459392E0,1.167034056E1
1.141754775E1,4.324683727E0,1.086966984E1,-8.548312803E-1,1.172959285E1
1.142758875E1,3.702174823E0,1.147267448E1,-2.541772219E-1,1.205790049E1
1.143763075E1,3.611223430E0,1.162066751E1,1.019903002E0,1.221151302E1
1.144767175E1,4.415525485E0,1.131071830E1,2.606809191E0,1.241872248E1
1.145771275E1,4.903867687E0,1.127472050E1,3.048699650E0,1.266735214E1
1.146775375E1,5.332003448E0,1.113808979E1,3.138509374E0,1.274117522E1
1.147779575E1,5.654434122E0,1.108475382E1,3.438547550E0,1.290999620E1
1.148783675E1,5.597978085E0,1.095603322E1,3.550997694E0,1.280553033E1
1.149787775E1,5.264348239E0,1.096985721E1,3.362051936E0,1.262357013E1
1.150791975E1,4.943968769E0,1.089074906E1,3.406012473E0,1.243592229E1
1.151796075E1,4.477455100E0,1.069037784E1,3.581687390E0,1.213096315E1
1.152800175E1,4.262950578E0,1.043840261E1,3.608251290E0,1.183860101E1
1.153804375E1,4.171251619E0,1.020387780E1,3.547872941E0,1.158040866E1
1.154808475E1,4.092330287E0,1.001328898E1,3.510482044E0,1.137262536E1
1.155812575E1,3.937812351E0,9.982336156E0,3.527253320E0,1.129579201E1
1.156816775E1,3.830419173E0,9.910466859E0,3.397518515E0,1.115493597E1
1.157820875E1,3.844051079E0,9.715908945E0,2.971789760E0,1.086310958E1
1.158824975E1,3.939034419E0,9.540686603E0,2.332948560E0,1.058221820E1
1.159829075E1,4.100074632E0,9.332013509E0,1.781200905E0,1.034745209E1
1.160833275E1,4.229895099E0,9.171806232E0,1.352601460E0,1.019036667E1
1.161837375E1,4.382310376E0,9.015475075E0,1.021719074E0,1.007607785E1
1.162841475E1,4.600844799E0,8.821280272E0,7.629098343E-1,9.978215768E0
1.163845675E1,4.784897606E0,8.673331683E0,6.237739491E-1,9.925271861E0
1.164849775E1,4.943241960E0,8.596513887E0,5.136498284E-1,9.929729514E0
1.165853875E1,5.114996903E0,8.493146809E0,2.843359908E-1,9.918547423E0
1.166858075E1,5.222675718E0,8.348994817E0,-6.643021703E-2,9.848170849E0
1.167862175E1,3.196902008E0,6.466615884E0,-1.002727318E1,1.235246983E1
1.168866275E1,1.908151705E0,3.606019408E0,-1.968206469E1,2.010044997E1
1.169870475E1,6.698289585E0,7.473726860E0,3.630933809E0,1.067273896E1
1.170874575E1,2.842119859E0,5.526923890E0,1.683416895E0,6.438821742E0
1.171878675E1,-7.018203033E0,-1.831760756E0,5.337540761E0,9.005546216E0
1.172882875E1,-2.566636246E1,-2.373462484E1,1.779766963E1,3.922819933E1
1.173886975E1,-5.251352569E1,-5.484981111E1,3.182274613E1,8.233382859E1
1.174891075E1,-7.402054380E1,-8.177039197E1,2.706014688E1,1.135679949E2
1.175895275E1,-7.030721103E1,-8.229772662E1,5.856167740E0,1.083988673E2
1.176899375E1,-2.293358437E1,-5.161578629E1,-3.606851233E1,6.701549275E1
1.177903475E1,6.416856079E0,-2.819330687E1,-4.539363782E1,5.382026522E1
1.178907675E1,-1.023750631E1,-1.703439164E1,1.087302731E1,2.265391262E1
1.179911775E1,-7.099775199E0,-9.566382776E0,7.688508539E0,1.417870413E1
1.180915875E1,-1.748006408E0,-2.736889274E0,2.936423169E0,4.378204007E0
1.181919975E1,3.342771912E0,2.142670661E0,-3.419211978E-1,3.985231702E0
1.182924175E1,7.921705440E0,5.574521980E0,-4.382292250E0,1.063170719E1
1.183928275E1,9.369822775E0,6.852915695E0,-5.510099112E0,1.284979473E1
1.184932375E1,9.338584610E0,7.616378456E0,-5.553657360E0,1.326881658E1
1.185936575E1,9.404873909E0,8.362705953E0,-6.406351556E0,1.412189238E1
1.186940675E1,9.615352623E0,9.217843700E0,-8.312392416E0,1.570093998E1
1.187944775E1,9.513221646E0,9.748391982E0,-8.778772184E0,1.620491818E1
1.188948975E1,8.453690382E0,1.001291125E1,-6.941278818E0,1.482918151E1
1.189953075E1,7.027087877E0,1.020515951E1,-4.681227057E0,1.324534376E1
1.190957175E1,5.777032692E0,9.913798603E0,-1.540985738E0,1.157722534E1
1.191961375E1,5.396022273E0,9.714814346E0,1.474597621E-1,1.111379407E1
1.192965475E1,5.159683079E0,9.824744339E0,7.573853119E-1,1.112301952E1
1.193969575E1,5.035839052E0,9.785889591E0,1.315683310E0,1.108396737E1
1.194973675E1,4.989651310E0,9.745713372E0,2.061902340E0,1.114122931E1
1.195977875E1,4.893539457E0,9.669523568E0,2.769609708E0,1.118557787E1
1.196981975E1,4.922302496E0,9.554117072E0,3.254945856E0,1.122964325E1
1.197986158E1,5.438084804E0,9.486993375E0,4.553490830E0,1.184525594E1
1.198990358E1,5.900905956E0,9.272547911E0,5.974859201E0,1.250998714E1
1.199994458E1,5.660110599E0,9.034187919E0,7.086717782E0,1.280136603E1
1.200998558E1,5.602470501E0,8.915337998E0,7.341795548E0,1.283638926E1
1.202002758E1,5.405617554E0,8.851060141E0,7.640881798E0,1.288196574E1
1.203006858E1,5.470347401E0,8.827038610E0,8.106265200E0,1.317394576E1
1.204010958E1,5.619712186E0,8.769636494E0,7.748988630E0,1.298208435E1
1.205015158E1,5.835431174E0,8.883177143E0,6.856580729E0,1.264815372E1
1.206019258E1,6.107326117E0,8.850073716E0,5.544821048E0,1.209827581E1
1.207023358E1,6.131983241E0,8.773137807E0,4.154369538E0,1.148163541E1
1.208027458E1,6.068321096E0,8.820338870E0,3.341948040E0,1.121568167E1
1.209031658E1,5.813065574E0,8.829776276E0,2.938670546E0,1.097235002E1
1.210035758E1,5.443381796E0,8.786451917E0,2.631915673E0,1.066579218E1
1.211039858E1,5.250116116E0,8.673748004E0,2.413615139E0,1.042224360E1
1.212044058E1,5.132918619E0,8.605981699E0,2.280107710E0,1.027660769E1
1.213048158E1,5.106027859E0,8.508418567E0,2.134437489E0,1.014990297E1
1.214052258E1,5.120167011E0,8.425962886E0,2.043806815E0,1.006926547E1
1.215056458E1,5.137566571E0,8.368715721E0,1.982835267E0,1.001806512E1
1.216060558E1,5.112341682E0,8.225851285E0,2.046266739E0,9.898882483E0
1.217064658E1,5.190055271E0,7.992385998E0,1.932067694E0,9.723568955E0
1.218068858E1,5.266771910E0,7.753988584E0,1.686437566E0,9.524037850E0
1.219072958E1,5.211198218E0,7.592503690E0,1.482848919E0,9.327461609E0
1.220077058E1,5.052970809E0,7.428796270E0,1.285017733E0,9.075835972E0
1.221081258E1,4.414810955E0,6.617424932E0,2.268462396E0,8.272048726E0
1.222085358E1,-5.929702908E0,-4.907932379E0,7.560857974E0,1.078961307E1
1.223089458E1,-3.511944842E1,-3.554122913E1,1.681151800E1,5.271794536E1
1.224093558E1,-6.958561316E1,-7.618353178E1,2.352227268E1,1.058271486E2
1.225097758E1,-8.763498087E1,-1.098440999E2,2.630208578E0,1.405437090E2
1.226101858E1,-4.393630586E1,-8.768275964E1,-4.573112975E1,1.082127605E2
1.227105958E1,7.808985740E0,-4.165819322E1,-6.093651936E1,7.422698102E1
1.228110158E1,-5.739633316E0,-2.293912753E1,1.697228018E1,2.910679056E1
1.229114258E1,-5.956437548E0,-1.054227254E1,1.964746086E1,2.307902461E1
1.230118358E1,1.329417688E0,-1.329763259E0,4.648805416E0,5.014679801E0
1.231122558E1,6.614667385E0,4.774220590E0,4.940476227E-1,8.172581594E0
1.232126658E1,8.854889483E0,7.581113314E0,-1.110983838E0,1.170968112E1
1.233130758E1,9.288185120E0,9.270799009E0,-2.666765370E0,1.339140525E1
1.234134958E1,8.672488514E0,9.890240171E0,-3.068880730E0,1.350729198E1
1.235139058E1,8.086446648E0,9.911520528E0,-2.446755695E0,1.302365049E1
1.236143158E1,7.594798138E0,9.929011889E0,-1.289091196E0,1.256694044E1
1.237147358E1,7.314696043E0,1.011129065E1,-1.252879390E0,1.254243531E1
1.238151458E1,7.263956244E0,1.029053354E1,-1.530423328E0,1.268866961E1
1.239155558E1,6.763242795E0,1.045017422E1,-1.939994910E0,1.259806233E1
1.240159658E1,5.688226351E0,1.083651145E1,-2.425409850E0,1.247671882E1
1.241163858E1,4.792044073E0,1.154593542E1,-2.074288058E0,1.267181842E1
1.242167958E1,4.214332150E0,1.194905416E1,-9.218718736E-1,1.270394972E1
1.243172058E1,4.310702450E0,1.185636877E1,4.135420612E-1,1.262246621E1
1.244176258E1,4.331172382E0,1.207594809E1,1.798472703E0,1.295461619E1
1.245180358E1,4.540902652E0,1.228503985E1,2.353640102E0,1.330720191E1
1.246184458E1,5.591908091E0,1.223668571E1,2.773334384E0,1.373671347E1
1.247188658E1,6.430328064E0,1.258775254E1,3.738744479E0,1.462117790E1
1.248192758E1,6.508290744E0,1.289237143E1,4.053368243E0,1.500002945E1
1.249196858E1,6.407052637E0,1.259245370E1,4.141803287E0,1.472327233E1
1.250201058E1,5.752309495E0,1.214463417E1,4.473511738E0,1.416310386E1
1.251205158E1,4.769718819E0,1.176485985E1,4.639830817E0,1.351629294E1
1.252209258E1,3.887521911E0,1.133036261E1,4.838545225E0,1.291903492E1
1.253213358E1,3.227771506E0,1.091230540E1,4.958671592E0,1.241311170E1
1.254217558E1,2.803651320E0,1.057079526E1,4.989319189E0,1.202062724E1
1.255221658E1,2.706999184E0,1.021392215E1,4.777547363E0,1.159642225E1
1.256225758E1,2.944008762E0,9.812596164E0,4.132239288E0,1.104670234E1
1.257229958E1,3.356575727E0,9.517638048E0,3.358673123E0,1.063638659E1
1.258234058E1,3.690236563E0,9.355620473E0,2.747173064E0,1.042556666E1
1.259238158E1,4.003690006E0,9.237152960E0,2.279627362E0,1.032236549E1
1.260242358E1,4.306388374E0,9.077430418E0,1.877501331E0,1.022104374E1
1.261246458E1,4.653795429E0,8.894928877E0,1.519461845E0,1.015314414E1
1.262250558E1,5.055403250E0,8.625784464E0,1.136892558E0,1.006249394E1
1.263254758E1,5.536101095E0,8.341885772E0,4.794234440E-1,1.002323902E1
1.264258858E1,6.020755751E0,7.928744903E0,-9.735323162E-1,1.000311255E1
1.265262958E1,5.886101975E0,7.298003996E0,-2.973598596E0,9.836124613E0
1.266267058E1,5.127777162E0,6.243265110E0,-6.651964434E0,1.046523238E1
1.267271258E1,3.087571355E0,2.577202399E0,-2.098554705E1,2.136745783E1
1.268275358E1,6.178422412E0,4.886492393E0,-3.852553807E0,8.768858663E0
1.269279458E1,6.788653625E0,6.076276817E0,3.620563188E0,9.803848010E0
1.270283658E1,5.869001209E0,5.497552156E0,2.978941197E0,8.575683387E0
1.271287758E1,1.755712454E0,1.404266726E0,8.704913664E0,8.990551326E0
1.272291858E1,-2.302296958E1,-1.946209126E1,2.611873815E1,3.988757460E1
1.273296058E1,-5.802638819E1,-4.988826151E1,3.517750659E1,8.422207153E1
1.274300158E1,-8.161720428E1,-7.667576910E1,2.342952181E1,1.144092832E2
1.275304258E1,-6.711472016E1,-8.371688796E1,-4.187274393E1,1.151791200E2
1.276308458E1,-1.092216614E1,-5.805223289E1,-7.858414593E1,9.830983393E1
1.277312558E1,-1.401761896E1,-3.086413489E1,2.122797027E1,3.999643966E1
1.278316658E1,-1.017733612E1,-1.533584099E1,2.196534159E1,2.865732751E1
1.279320858E1,-1.920675856E0,-6.344071108E0,1.001125064E1,1.200672200E1
1.280324958E1,1.801320736E0,-5.169616914E-1,6.607448412E0,6.868069620E0
1.281329058E1,5.522500471E0,2.112361034E0,4.263414263E0,7.289498046E0
1.282333158E1,7.467570911E0,4.074868455E0,2.468045408E0,8.857788458E0
1.283337358E1,7.944951046E0,5.315042430E0,8.936252904E-1,9.600546302E0
1.284341458E1,8.372905836E0,5.998943297E0,-2.589077290E-1,1.030339294E1
1.285345558E1,9.083107479E0,6.706121930E0,-4.791388600E0,1.226508531E1
1.286349758E1,1.003336364E1,7.279930837E0,-8.256196581E0,1.489397734E1
1.287353858E1,8.876940503E0,7.548943688E0,-6.431800978E0,1.330994693E1
1.288357958E1,7.810062797E0,7.892686878E0,-4.591753548E0,1.201564762E1
1.289362158E1,6.858330801E0,8.266973584E0,-3.282723346E0,1.123191107E1
1.290366258E1,6.245490561E0,8.647032661E0,-3.336887274E0,1.117641011E1
1.291370358E1,5.571708300E0,9.473211488E0,-5.739297101E0,1.239859671E1
1.292374558E1,4.264648025E0,1.056841895E1,-9.806888112E0,1.503508418E1
1.293378658E1,3.769286533E0,1.053827071E1,-8.301972093E0,1.393504256E1
1.294382758E1,3.957987584E0,1.014382222E1,-5.085597103E0,1.201774075E1
1.295386958E1,4.137080783E0,9.863188612E0,-2.200727080E0,1.091975855E1
1.296391058E1,4.199146346E0,9.720778506E0,-1.958887410E-1,1.059078549E1
1.297395158E1,4.403554480E0,9.544306029E0,1.353409545E0,1.059796146E1
1.298399187E1,4.617158530E0,9.376723659E0,2.438494895E0,1.073253730E1
1.299403388E1,4.773665105E0,9.375679931E0,3.447297616E0,1.107136458E1
1.300407487E1,4.648074806E0,9.363389668E0,4.086580428E0,1.122398348E1
1.301411587E1,4.823283407E0,9.394473467E0,4.749540077E0,1.157921955E1
1.302415787E1,4.834889838E0,9.374827407E0,5.406753083E0,1.185312311E1
1.303419887E1,4.358166638E0,9.218700317E0,5.797738853E0,1.172995430E1
1.304423987E1,3.968798209E0,8.962132680E0,6.033743001E0,1.150987559E1
1.305428187E1,3.878551990E0,8.963240728E0,6.018995154E0,1.147219040E1
1.306432287E1,3.785713701E0,8.994618641E0,5.769444176E0,1.133672258E1
1.307436387E1,3.906634413E0,9.017024002E0,5.319588640E0,1.117436967E1
1.308440587E1,4.088846224E0,8.928828110E0,4.549967591E0,1.082334698E1
1.309444687E1,4.145600469E0,8.877757359E0,3.671552955E0,1.046331114E1
1.310448787E1,4.196704256E0,8.899528881E0,3.103530745E0,1.031725952E1
1.311452887E1,4.256812756E0,8.801994401E0,2.705683268E0,1.014476625E1
1.312457087E1,4.273519713E0,8.823612142E0,2.278020547E0,1.006521135E1
1.313461187E1,4.300106418E0,8.835426441E0,1.705021479E0,9.973102518E0
1.314465287E1,4.320912565E0,8.911294649E0,1.066293861E0,9.960845361E0
1.315469487E1,4.350581338E0,8.975887086E0,3.866436267E-1,9.982164106E0
1.316473587E1,4.111571428E0,8.872797166E0,-5.707021348E-1,9.795777155E0
1.317477687E1,3.751720912E0,8.531560092E0,-2.866641912E0,9.750926277E0
1.318481887E1,2.246278059E0,5.695490931E0,-1.857064582E1,1.955385558E1
1.319485987E1,3.576787423E0,4.000450357E0,-1.487193810E1,1.581048874E1
1.320490087E1,5.541442527E0,4.728117633E0,2.421397929E0,7.676317448E0
1.321494287E1,3.906546997E0,3.154250078E0,5.038521169E0,7.113163752E0
1.322498387E1,-4.668684779E0,-6.139308633E0,1.226612177E1,1.448949520E1
1.323502488E1,-2.705718352E1,-3.207903193E1,2.499532196E1,4.884589634E1
1.324506687E1,-5.304596379E1,-6.045092447E1,2.414161912E1,8.397027044E1
1.325510787E1,-7.657926198E1,-9.453677227E1,-3.056294481E1,1.254419319E2
1.326514887E1,-5.157901433E1,-7.846245835E1,-2.084120268E1,9.618267941E1
1.327519087E1,-1.864407632E1,-3.175225444E1,2.537705860E1,4.471914967E1
1.328523187E1,-9.726055033E0,-1.705419499E1,1.131275781E1,2.265877761E1
1.329527287E1,-3.605210153E0,-7.137228370E0,2.521361489E0,8.384201382E0
1.330531387E1,1.883427923E0,-4.545116740E-1,-3.016920033E0,3.585482964E0
1.331535587E1,5.772787029E0,3.903956096E0,-7.374435875E0,1.014634159E1
1.332539687E1,7.108650688E0,5.943649687E0,-6.042115045E0,1.106196368E1
1.333543787E1,7.157215907E0,6.716959160E0,-5.107533517E0,1.106481715E1
1.334547987E1,6.964450749E0,7.168905076E0,-5.597316180E0,1.145542329E1
1.335552087E1,6.351302360E0,7.275627871E0,-5.894488052E0,1.131453896E1
1.336556187E1,5.305540119E0,7.126978201E0,-5.137827941E0,1.026352036E1
1.337560387E1,4.707941523E0,7.454343925E0,-4.238065413E0,9.782287830E0
1.338564488E1,4.858348867E0,8.440352299E0,-5.647285901E0,1.125766133E1
1.339568588E1,4.696454961E0,9.836827025E0,-8.403349949E0,1.376358040E1
1.340572787E1,3.575070680E0,1.029943768E1,-6.714675822E0,1.280415629E1
1.341576887E1,3.121428487E0,1.011681744E1,-3.346562662E0,1.110372877E1
1.342580987E1,2.870561009E0,9.932740073E0,-5.557333724E-1,1.035414340E1
1.343585087E1,2.513615098E0,9.776268582E0,1.347038273E0,1.018372232E1
1.344589287E1,2.488762970E0,9.807653512E0,1.987302539E0,1.031180779E1
1.345593387E1,2.745587592E0,9.880110455E0,2.614397707E0,1.058252849E1
1.346597487E1,2.761973244E0,1.004716658E1,3.238956352E0,1.091168597E1
1.347601687E1,2.964990326E0,1.018627301E1,3.608390454E0,1.120588270E1
1.348605787E1,3.046713935E0,1.041053945E1,3.750473117E0,1.147727520E1
1.349609887E1,3.072644875E0,1.047997865E1,3.856638672E0,1.158208793E1
1.350614087E1,3.092574817E0,1.049149766E1,4.053201013E0,1.166464661E1
1.351618187E1,3.015209137E0,1.050966379E1,4.119833543E0,1.168407239E1
1.352622287E1,3.015690363E0,1.050624317E1,4.152486734E0,1.169267634E1
1.353626488E1,3.049291680E0,1.044087715E1,3.971106105E0,1.157928232E1
1.354630588E1,3.095185306E0,1.032474794E1,3.620594763E0,1.137054521E1
1.355634687E1,3.114071813E0,1.024760913E1,3.210221965E0,1.118107603E1
1.356638787E1,3.235185775E0,1.006386038E1,2.602303326E0,1.088667512E1
1.357642987E1,3.385555989E0,9.838351979E0,2.041556661E0,1.060297659E1
1.358647087E1,3.404576105E0,9.655801322E0,1.695834042E0,1.037793287E1
1.359651187E1,3.363235705E0,9.444964174E0,1.408398661E0,1.012434143E1
1.360655387E1,3.284071130E0,9.284368057E0,1.177224459E0,9.918188889E0
1.361659487E1,3.156303328E0,9.222865874E0,9.932675461E-1,9.798473659E0
1.362663587E1,2.887758255E0,9.185961172E0,9.053371172E-1,9.671642347E0
1.363667787E1,2.620244046E0,9.188855544E0,8.987379496E-1,9.597316029E0
1.364671887E1,2.342900667E0,9.156379523E0,8.475375366E-1,9.489298677E0
1.365675987E1,1.210723304E0,8.673517039E0,-2.808602450E0,9.196955826E0
1.366680187E1,-6.250211602E-1,7.941274901E0,-9.458399906E0,1.236591393E1
1.367684287E1,3.040537521E-1,7.829902400E0,-4.027093195E0,8.810068097E0
1.368688387E1,-5.903995040E-1,5.854611211E0,-9.627467469E0,1.128331396E1
1.369692587E1,-1.117224571E0,2.568070802E0,-1.338161381E1,1.367153124E1
1.370696687E1,9.599248222E-1,2.970502496E0,5.513568850E0,6.335991020E0
1.371700787E1,-2.562141141E0,-1.381894695E0,6.248251616E0,6.893101510E0
1.372704887E1,-7.685417701E0,-1.100382368E1,9.746404513E0,1.658741034E1
1.373709087E1,-1.647173396E1,-2.576982076E1,1.524602308E1,3.417371653E1
1.374713187E1,-2.660529900E1,-4.278321154E1,1.766019107E1,5.338658514E1
1.375717287E1,-3.885102450E1,-6.202124335E1,-7.649127980E-1,7.318894604E1
1.376721487E1,-4.015794269E1,-6.909870850E1,-2.734103309E1,8.446788720E1
1.377725588E1,-2.604572747E1,-4.767260649E1,-4.164671162E0,5.448304154E1
1.378729688E1,-1.242672256E1,-2.597148889E1,1.557070493E1,3.273207174E1
1.379733887E1,-5.357569229E0,-1.569410106E1,8.065140563E0,1.844057614E1
1.380737987E1,-1.837375252E0,-9.541159058E0,6.781773791E0,1.184914004E1
1.381742087E1,-2.863556921E-1,-5.397269484E0,4.907985588E0,7.300742428E0
1.382746287E1,7.747847253E-1,-2.152615020E0,2.928054049E0,3.715850281E0
1.383750387E1,2.612449999E0,1.330721033E0,-7.089080934E-1,3.016332898E0
1.384754487E1,4.086330752E0,4.710998155E0,-5.987303245E0,8.645195358E0
1.385758687E1,4.339233061E0,5.010970259E0,-3.360714093E0,7.431901891E0
1.386762787E1,4.472315982E0,5.267311608E0,-2.253988198E0,7.268194041E0
1.387766887E1,4.798059103E0,6.211114780E0,-3.428250604E0,8.564591068E0
1.388770987E1,4.996346372E0,7.007690908E0,-4.090087003E0,9.528904482E0
1.389775187E1,5.009264626E0,7.865293257E0,-4.730985693E0,1.045647148E1
1.390779287E1,4.877211400E0,9.627173354E0,-9.113354541E0,1.412525712E1
1.391783387E1,4.028533949E0,1.135139270E1,-1.329200757E1,1.793768846E1
1.392787588E1,3.387111349E0,1.145945393E1,-1.236998235E1,1.719907180E1
1.393791688E1,3.209351315E0,1.104537867E1,-1.099517799E1,1.591207921E1
1.394795787E1,3.260065678E0,1.041455181E1,-7.229524330E0,1.309033765E1
1.395799987E1,3.321274624E0,9.946410863E0,-3.098563535E0,1.093448902E1
1.396804087E1,3.424532944E0,9.400825297E0,3.757783306E-1,1.001220013E1
1.397808271E1,3.487395775E0,9.113180879E0,2.290005731E0,1.002278012E1
1.398812471E1,3.783212847E0,9.303417701E0,2.766959749E0,1.041740594E1
1.399816571E1,4.070167294E0,9.388466038E0,3.204958302E0,1.072293402E1
1.400820671E1,4.163427460E0,9.349452830E0,3.629351553E0,1.085903261E1
1.401824771E1,4.246773379E0,9.314850762E0,4.347893665E0,1.112230678E1
1.402828971E1,4.066332105E0,9.260529544E0,5.163851559E0,1.135595998E1
1.403833071E1,4.092063070E0,9.293855749E0,6.136242353E0,1.186483060E1
1.404837171E1,4.219480038E0,9.284165744E0,6.586694305E0,1.214019305E1
1.405841371E1,4.154966831E0,9.158680987E0,6.371444263E0,1.190548146E1
1.406845471E1,4.171417972E0,9.152935513E0,5.319596826E0,1.137871112E1
1.407849571E1,4.347596626E0,9.154358726E0,4.143840164E0,1.094875753E1
1.408853771E1,4.328244097E0,9.088666427E0,3.487504825E0,1.065364934E1
1.409857871E1,4.317354242E0,9.040639737E0,3.130661241E0,1.049636862E1
1.410861971E1,4.188763445E0,8.958218554E0,3.039916255E0,1.034584505E1
1.411866171E1,4.001700199E0,8.819827824E0,3.047663231E0,1.015338458E1
1.412870271E1,3.683850819E0,8.616012012E0,3.026919356E0,9.847266658E0
1.413874371E1,3.392350746E0,8.490616134E0,2.956860065E0,9.609455102E0
1.414878571E1,3.014204878E0,8.395785990E0,2.845602753E0,9.363338532E0
1.415882671E1,2.750363013E0,8.250476834E0,2.629551351E0,9.085670311E0
1.416886771E1,2.614178436E0,8.090433864E0,2.296183022E0,8.806901014E0
1.417890871E1,2.622310744E0,7.902133055E0,1.921716806E0,8.544777115E0
1.418895071E1,2.482716364E0,7.578317176E0,1.591808567E0,8.131950951E0
1.419899171E1,1.414598464E0,6.300356154E0,-6.323972766E-1,6.488104716E0
1.420903271E1,-1.765448068E0,1.804319773E0,-1.353994822E1,1.377325577E1
1.421907471E1,-2.132711683E0,-2.295179493E0,-1.604331549E1,1.634638431E1
1.422911571E1,-4.555885558E0,-7.787306018E0,2.866248102E-1,9.026648438E0
1.423915671E1,-1.195911371E1,-2.112858865E1,1.005265360E1,2.627724308E1
1.424919871E1,-2.353590137E1,-4.073490383E1,1.776121458E1,5.028649706E1
1.425923971E1,-3.889569957E1,-6.274857616E1,1.758885504E1,7.589220696E1
1.426928071E1,-5.103287503E1,-8.142990626E1,-1.946150069E1,9.805067046E1
1.427932271E1,-2.837884370E1,-5.206577398E1,-2.245919508E1,6.340835145E1
1.428936371E1,-1.317093044E1,-2.685705671E1,1.977980674E1,3.586106048E1
1.429940471E1,-7.942189990E0,-1.625884737E1,7.867280141E0,1.973125937E1
1.430944671E1,-3.081865057E0,-8.267802134E0,4.272537088E0,9.803520670E0
1.431948771E1,7.652882624E-1,-2.895678016E0,1.735792744E-1,3.000124508E0
1.432952871E1,3.695249673E0,9.188677204E-1,-2.728603184E0,4.684491794E0
1.433957071E1,4.900380115E0,3.707134724E0,-3.608043129E0,7.125626173E0
1.434961171E1,5.414148642E0,5.976784689E0,-3.515156600E0,8.797231761E0
1.435965271E1,5.831263279E0,7.552786478E0,-3.412294722E0,1.013370467E1
1.436969371E1,5.911368964E0,8.337514978E0,-3.089519062E0,1.067724529E1
1.437973571E1,5.604350381E0,8.652154237E0,-2.422907242E0,1.058957013E1
1.438977671E1,5.160313409E0,8.747746273E0,-1.500415417E0,1.026660342E1
1.439981771E1,4.586222959E0,8.994595837E0,-1.281331941E0,1.017732808E1
1.440985971E1,4.103558111E0,9.357405628E0,-2.039077295E0,1.041912019E1
1.441990071E1,2.176569601E0,1.081548486E1,-9.716007178E0,1.470078105E1
1.442994171E1,7.988483566E-1,1.148624938E1,-1.363823290E1,1.784862684E1
1.443998371E1,1.862799531E0,1.137279351E1,-1.182788699E1,1.651391428E1
1.445002471E1,2.866118294E0,1.132650111E1,-8.091585181E0,1.421189685E1
1.446006571E1,3.389282420E0,1.068468265E1,-2.321279125E0,1.144718373E1
1.447010771E1,3.421675117E0,1.013171264E1,1.481221347E0,1.079599362E1
1.448014871E1,3.332792177E0,1.029494585E1,2.522944915E0,1.111119547E1
1.449018971E1,3.386381324E0,1.047642588E1,2.578622103E0,1.130806657E1
1.450023071E1,3.241251677E0,1.032287566E1,2.833734952E0,1.118470062E1
1.451027271E1,3.105352445E0,1.021681418E1,3.499963195E0,1.123727050E1
1.452031371E1,3.084765568E0,1.009227083E1,4.168305792E0,1.134656257E1
1.453035471E1,3.210861066E0,9.917158413E0,4.535493393E0,1.136795321E1
1.454039671E1,3.271166325E0,9.893514612E0,4.658742174E0,1.141429100E1
1.455043771E1,3.343807746E0,9.806359524E0,4.616103108E0,1.134258107E1
1.456047871E1,3.336604269E0,9.742314970E0,4.241737465E0,1.113723331E1
1.457052071E1,3.374912302E0,9.668903763E0,3.670231776E0,1.087880206E1
1.458056171E1,3.530843511E0,9.680403482E0,3.099696726E0,1.076035256E1
1.459060271E1,3.455512370E0,9.705481605E0,2.561893219E0,1.061603673E1
1.460064471E1,3.422407189E0,9.629712215E0,2.024987990E0,1.041848380E1
1.461068571E1,3.500213164E0,9.374857228E0,1.525038042E0,1.012250864E1
1.462072671E1,3.664989163E0,9.098050624E0,1.165147839E0,9.877461222E0
1.463076771E1,3.771345338E0,8.930596892E0,9.373870218E-1,9.739471286E0
1.464080971E1,3.797769490E0,8.848896087E0,7.569210429E-1,9.659137877E0
1.465085071E1,3.849698320E0,8.815575728E0,4.683678941E-1,9.630883711E0
1.466089171E1,3.989456129E0,8.766479582E0,2.759382927E-1,9.635510698E0
1.467093371E1,4.116545069E0,8.715721073E0,1.456377697E-1,9.640069890E0
1.468097471E1,4.143784616E0,8.638279964E0,1.253584564E-1,9.581573275E0
1.469101571E1,4.160074959E0,8.538317134E0,2.250523138E-1,9.500512180E0
1.470105771E1,4.136069507E0,8.431462777E0,3.702947752E-1,9.398603819E0
1.471109871E1,3.885946087E0,7.925423099E0,6.006096196E-1,8.847239129E0
1.472113971E1,2.077673596E0,6.291034523E0,8.663690063E-1,6.681649362E0
1.473118171E1,-1.633382855E0,2.009071723E0,1.673832139E0,3.083183869E0
1.474122271E1,-8.510629399E0,-9.265055289E0,4.097791879E0,1.323117382E1
1.475126371E1,-2.323150936E1,-3.204534963E1,1.000018069E1,4.082414817E1
1.476130571E1,-4.142282174E1,-6.463051889E1,1.315584813E1,7.788472554E1
1.477134671E1,-6.022575989E1,-9.313422638E1,-2.893068002E-1,1.109108199E2
1.478138771E1,-5.158259282E1,-8.065275985E1,-4.014602373E0,9.582144116E1
1.479142871E1,-3.611825693E0,-3.566396687E1,-6.867912166E1,7.747119187E1
1.480147071E1,-6.228590938E0,-2.550513835E1,2.804482502E0,2.640402525E1
1.481151171E1,-9.089900774E0,-1.900598505E1,1.825513708E1,2.787658145E1
1.482155271E1,-9.349645203E-1,-8.157607262E0,-2.955611392E0,8.726760773E0
1.483159471E1,4.888725445E0,-2.029427050E0,-9.870627440E0,1.120033467E1
1.484163571E1,4.537467998E0,-3.825722104E-1,-5.010856238E0,6.770794456E0
1.485167671E1,4.133093859E0,1.467486237E0,-1.874390466E0,4.769624757E0
1.486171871E1,4.487378410E0,3.873063501E0,-1.698564692E0,6.166223146E0
1.487175971E1,4.712619004E0,5.934141530E0,-1.399616436E0,7.705954823E0
1.488180071E1,4.772816089E0,7.603739700E0,-8.213858646E-1,9.015059932E0
1.489184271E1,4.682908131E0,8.904734073E0,-4.553910953E-1,1.007131067E1
1.490188371E1,4.519103940E0,9.599753421E0,-2.069604439E-1,1.061227585E1
1.491192471E1,4.129992496E0,1.041818059E1,-3.636740460E-1,1.121283121E1
1.492196671E1,3.859100643E0,1.110612423E1,-6.971697349E-2,1.175770018E1
1.493200771E1,3.797418365E0,1.092692929E1,3.918786389E-1,1.157461614E1
1.494204871E1,3.165889546E0,1.144943648E1,2.996587108E-1,1.188285520E1
1.495208971E1,2.202370440E0,1.224526124E1,1.346434840E0,1.251438153E1
1.496213171E1,1.273856860E0,1.300776272E1,2.709873383E0,1.334795924E1
1.497217271E1,1.712548015E0,1.225076815E1,2.390848128E0,1.259882120E1
1.498221287E1,3.039969757E0,1.161441099E1,1.771323935E0,1.213563131E1
1.499225487E1,3.850176330E0,1.152767924E1,1.165464685E0,1.220940434E1
1.500229587E1,4.753630497E0,1.144068787E1,9.701290905E-1,1.242688587E1
1.501233687E1,5.441321822E0,1.183380554E1,1.097810061E0,1.307104141E1
1.502237888E1,5.696702474E0,1.211158103E1,1.244600755E0,1.344216668E1
1.503241988E1,5.683667277E0,1.206454953E1,1.359860047E0,1.340547084E1
1.504246087E1,5.398167032E0,1.197157529E1,1.462770019E0,1.321357327E1
1.505250287E1,4.958472787E0,1.183534219E1,1.633060673E0,1.293555813E1
1.506254387E1,4.522032225E0,1.177066730E1,1.793243831E0,1.273629097E1
1.507258487E1,4.152430309E0,1.165963102E1,1.662274386E0,1.248810750E1
1.508262687E1,3.892032746E0,1.134234004E1,1.209873265E0,1.205240183E1
1.509266787E1,3.645665577E0,1.072963488E1,5.560374641E-1,1.134570931E1
1.510270887E1,3.495755539E0,1.014610731E1,-2.014026654E-1,1.073332956E1
1.511274987E1,3.310502298E0,9.721194828E0,-1.139585055E0,1.033245897E1
1.512279187E1,3.110609384E0,9.488465120E0,-1.719093242E0,1.013223286E1
1.513283287E1,3.020390647E0,9.479835799E0,-1.435925306E0,1.005245880E1
1.514287387E1,3.189989722E0,9.706432947E0,-8.420351605E-1,1.025182414E1
1.515291587E1,3.425517615E0,1.002932438E1,-1.132607134E-1,1.059878986E1
1.516295687E1,3.555848836E0,1.042873131E1,9.352153659E-1,1.105789878E1
1.517299787E1,3.439184897E0,1.041803091E1,1.693461096E0,1.110095362E1
1.518303988E1,3.321058862E0,9.961915340E0,1.740065743E0,1.064410720E1
1.519308087E1,3.217735930E0,9.354608905E0,1.582110375E0,1.001826360E1
1.520312187E1,3.095259566E0,8.630230687E0,5.212642188E-1,9.183312576E0
1.521316387E1,2.740714522E0,7.316287070E0,-3.571688651E0,8.590490812E0
1.522320487E1,1.993335696E0,6.101811608E0,-3.901986169E0,7.512056187E0
1.523324587E1,-1.059495011E-1,5.168281994E0,1.394364320E0,5.354121397E0
1.524328787E1,-1.095263949E1,-1.767903898E0,6.394533749E0,1.280530585E1
1.525332887E1,-3.407618586E1,-2.756648769E1,1.758086657E1,4.722482987E1
1.526336987E1,-6.425094104E1,-6.864219064E1,2.775259521E1,9.803132307E1
1.527341088E1,-7.748300763E1,-9.592653849E1,2.315942956E1,1.254666347E2
1.528345287E1,-5.413223612E1,-8.350010127E1,2.177126548E0,9.953544987E1
1.529349387E1,-1.789169520E1,-4.586081632E1,-1.478180561E1,5.139872574E1
1.530353487E1,1.293297098E1,-2.251200012E1,-4.873454973E1,5.521873075E1
1.531357687E1,5.790884746E0,-1.098244041E1,-1.119537379E1,1.671779704E1
1.532361787E1,1.208583223E0,-4.923966029E0,8.084094898E0,9.542468505E0
1.533365887E1,4.189041188E0,-1.851871669E-2,3.680198940E0,5.576044589E0
1.534370087E1,6.342539138E0,3.957454610E0,1.769876164E0,7.682558906E0
1.535374187E1,7.513502544E0,6.083979355E0,9.570524506E-1,9.715115782E0
1.536378287E1,8.196972472E0,7.140154316E0,7.426818303E-1,1.089604229E1
1.537382487E1,8.414956672E0,7.619142435E0,4.960450315E-1,1.136260920E1
1.538386587E1,8.695364576E0,8.277132536E0,-5.287800837E-1,1.201665080E1
1.539390687E1,9.023389281E0,8.642337931E0,-2.621986223E0,1.276661156E1
1.540394887E1,9.081613516E0,8.912937716E0,-5.210915798E0,1.375026568E1
1.541398987E1,9.347592246E0,9.363640514E0,-7.379045820E0,1.514944097E1
1.542403088E1,9.362140703E0,9.807755839E0,-8.231924204E0,1.586210356E1
1.543407188E1,9.024805477E0,1.047003136E1,-9.026081339E0,1.650874965E1
1.544411387E1,8.425973411E0,1.162188724E1,-1.030290391E1,1.766961006E1
1.545415487E1,7.353840228E0,1.191519293E1,-8.267337281E0,1.626037067E1
1.546419587E1,6.368931130E0,1.091219781E1,-4.109291013E0,1.328629435E1
1.547423787E1,5.787517920E0,1.011815528E1,-1.053779358E0,1.170396860E1
1.548427887E1,5.880337206E0,9.600482569E0,5.680369739E-1,1.127254617E1
1.549431987E1,6.087920963E0,9.308857951E0,1.792333858E0,1.126632498E1
1.550436187E1,6.270414902E0,9.081454471E0,2.891075088E0,1.140829670E1
1.551440287E1,6.352779951E0,8.951905316E0,3.829577758E0,1.162583707E1
1.552444387E1,6.362597426E0,8.771595311E0,4.434093318E0,1.170831815E1
1.553448587E1,6.375606896E0,8.599398903E0,5.105489330E0,1.186018744E1
1.554452687E1,6.554378498E0,8.530706398E0,6.307686224E0,1.247075518E1
1.555456787E1,6.658130323E0,8.407005043E0,7.368153627E0,1.301146114E1
1.556460988E1,6.831920097E0,8.278010788E0,7.962010882E0,1.336391455E1
1.557465088E1,7.027643947E0,8.180966304E0,7.879683255E0,1.335684833E1
1.558469188E1,7.014101796E0,8.012801551E0,6.899406906E0,1.268875204E1
1.559473287E1,7.068039436E0,7.935252269E0,5.229299444E0,1.184360514E1
1.560477487E1,6.969174714E0,7.853174903E0,4.147605479E0,1.128912678E1
1.561481587E1,6.670659152E0,7.785394564E0,3.408189976E0,1.080397246E1
1.562485687E1,6.452809439E0,7.710639666E0,2.846523982E0,1.044966088E1
1.563489887E1,6.284126038E0,7.662694252E0,2.468390101E0,1.021274072E1
1.564493987E1,6.064490585E0,7.633992024E0,2.382169105E0,1.003646401E1
1.565498087E1,5.915147434E0,7.684285095E0,2.830571316E0,1.010194737E1
1.566502287E1,5.845748586E0,7.706487558E0,3.241333246E0,1.020141991E1
1.567506387E1,5.687223553E0,7.693894994E0,3.132722092E0,1.006749619E1
1.568510487E1,5.613649208E0,7.718590710E0,2.604834293E0,9.893172477E0
1.569514687E1,5.573321546E0,7.700724542E0,2.233431727E0,9.764798452E0
1.570518787E1,5.531466007E0,7.557854844E0,2.115393984E0,9.601727852E0
1.571522887E1,5.444481073E0,6.642126494E0,2.861539632E0,9.052548127E0
1.572526987E1,1.255020055E0,-7.013957369E-1,7.163211057E0,7.306067613E0
1.573531187E1,-2.194178900E1,-2.641804308E1,1.528945269E1,3.759152123E1
1.574535287E1,-5.779495540E1,-7.330507381E1,1.881822628E1,9.522613274E1
1.575539387E1,-7.929406340E1,-1.089168999E2,1.301131549E1,1.353504115E2
1.576543587E1,-6.564448690E1,-9.090881352E1,-4.062973347E1,1.192660315E2
1.577547687E1,-3.145710804E1,-3.696912387E1,-6.259826998E1,7.921369308E1
1.578551787E1,-2.421977534E1,-2.567431935E1,2.034554123E1,4.073952920E1
1.579555987E1,-1.394650279E1,-1.283862382E1,8.402980404E0,2.073512192E1
1.580560087E1,-4.000535726E0,-1.956493560E0,2.928087963E0,5.329714088E0
1.581564188E1,2.701274468E0,4.111252754E0,1.037686066E0,5.027531734E0
1.582568387E1,7.308451216E0,8.231335974E0,-1.689666983E0,1.113657603E1
1.583572487E1,1.047049212E1,1.172096831E1,-1.012683957E1,1.869666235E1
1.584576587E1,1.253475572E1,1.227788987E1,-1.531756025E1,2.329150774E1
1.585580787E1,1.043010190E1,1.015683344E1,-7.242101691E0,1.626026839E1
1.586584887E1,8.688651972E0,8.813289467E0,-1.974960237E0,1.253264586E1
1.587588987E1,8.680897395E0,8.669537424E0,-1.236020697E0,1.233071798E1
1.588593187E1,8.592396863E0,8.863800640E0,-1.260537488E0,1.240907734E1
1.589597287E1,8.346171781E0,8.876120138E0,-1.038638577E0,1.222795413E1
1.590601387E1,8.058908601E0,8.797966838E0,-8.007364225E-1,1.195790145E1
1.591605487E1,7.615910679E0,8.903349452E0,-4.196044179E-1,1.172381315E1
1.592609687E1,7.369953400E0,9.167178161E0,4.754955769E-3,1.176237183E1
1.593613787E1,7.625481986E0,9.475091368E0,7.510549700E-1,1.218562331E1
1.594617887E1,7.836468823E0,9.234801795E0,1.949727454E0,1.226756883E1
1.595622087E1,8.212979225E0,9.220737487E0,2.791592900E0,1.265970057E1
1.596626188E1,8.700689635E0,9.353496180E0,3.141618923E0,1.315521419E1
1.597630288E1,8.752816393E0,9.267169057E0,3.308256091E0,1.316953968E1
1.598634496E1,8.646656100E0,9.095237528E0,3.629962294E0,1.306386748E1
1.599638596E1,8.522240215E0,8.793556284E0,4.153054207E0,1.293070260E1
1.600642696E1,8.138380448E0,8.297352208E0,4.632963262E0,1.251174003E1
1.601646896E1,7.583520613E0,7.975870537E0,5.154236398E0,1.215279592E1
1.602650996E1,7.172851362E0,7.800154690E0,5.516618757E0,1.194676912E1
1.603655096E1,6.877257653E0,7.693730687E0,5.818453199E0,1.184671104E1
1.604659196E1,6.605396039E0,7.624050003E0,6.125095221E0,1.180144850E1
1.605663396E1,6.451047088E0,7.453131212E0,6.214083996E0,1.165246812E1
1.606667496E1,6.493887883E0,7.255748507E0,5.818329238E0,1.134325444E1
1.607671596E1,6.398790522E0,7.059404853E0,5.351938945E0,1.092808160E1
1.608675796E1,6.186427835E0,6.979266424E0,5.275908769E0,1.071528173E1
1.609679896E1,5.905895385E0,7.030980368E0,5.166586887E0,1.053602891E1
1.610683996E1,5.820835939E0,7.212385556E0,4.709453321E0,1.039613327E1
1.611688196E1,5.831303625E0,7.410863444E0,4.073345840E0,1.027215388E1
1.612692296E1,5.928352786E0,7.592291436E0,3.378900396E0,1.020809600E1
1.613696396E1,6.091304746E0,7.775863017E0,2.510585363E0,1.019171615E1
1.614700596E1,6.206014253E0,7.733212257E0,1.750858680E0,1.006889720E1
1.615704696E1,6.162357772E0,7.716154760E0,3.064604661E-1,9.879656654E0
1.616708796E1,4.384477939E0,6.761336603E0,-1.217715755E1,1.460213975E1
1.617712896E1,2.099450381E0,2.914273916E0,-3.596645971E1,3.614535804E1
1.618717096E1,8.445998370E0,2.464277462E0,-1.336134736E1,1.599791096E1
1.619721196E1,9.989069810E0,2.326584889E0,-1.181490734E0,1.032426430E1
1.620725296E1,8.987121341E0,1.496173262E0,8.586083624E0,1.251909407E1
1.621729496E1,6.971289652E0,-1.334124697E0,1.282746967E1,1.466024373E1
1.622733596E1,-1.187685040E1,-1.731602279E1,1.880715984E1,2.818888933E1
1.623737696E1,-4.308451155E1,-4.871930019E1,3.074829687E1,7.193957956E1
1.624741896E1,-8.008938764E1,-9.186544607E1,2.472802001E1,1.243585348E2
1.625745996E1,-7.635391497E1,-9.175660366E1,-6.314540330E0,1.195368900E2
1.626750096E1,-2.967159993E1,-4.800738532E1,-2.443034060E1,6.149759694E1
1.627754296E1,-1.665555756E1,-2.171885806E1,4.322023244E0,2.770913708E1
1.628758396E1,-7.947840739E0,-9.616028561E0,6.642610059E0,1.413366358E1
1.629762496E1,-1.162791338E0,-9.055395770E-1,3.930455092E0,4.197685416E0
1.630766696E1,2.654306123E0,4.120374995E0,2.289562658E0,5.409706856E0
1.631770796E1,6.608553536E0,7.562230316E0,-8.660954297E-1,1.008019982E1
1.632774896E1,8.686602523E0,8.899119576E0,-3.903985916E0,1.303428167E1
1.633779096E1,1.090350885E1,9.110145004E0,-8.677800710E0,1.664888802E1
1.634783196E1,1.275929464E1,9.007055084E0,-1.042872079E1,1.877990571E1
1.635787296E1,1.250929928E1,8.681819501E0,-8.875721943E0,1.762484038E1
1.636791396E1,1.220634100E1,8.788644038E0,-7.081461135E0,1.662474410E1
1.637795596E1,1.066306549E1,8.850005888E0,-5.026235000E0,1.474064477E1
1.638799696E1,8.948846052E0,8.952428641E0,-4.016955292E0,1.328020158E1
1.639803796E1,7.658195404E0,9.340942208E0,-3.829601147E0,1.267150359E1
1.640807996E1,6.694650863E0,9.647949096E0,-3.394636130E0,1.222394480E1
1.641812096E1,5.938635700E0,9.752956903E0,-2.545974759E0,1.169912603E1
1.642816196E1,5.489361377E0,9.728389826E0,-1.312322184E0,1.124708169E1
1.643820396E1,5.611990353E0,9.555912752E0,2.967005861E-1,1.108593413E1
1.644824496E1,5.923932876E0,9.342150242E0,1.696314975E0,1.119134649E1
1.645828596E1,5.984840983E0,9.406370212E0,2.825854075E0,1.150145962E1
1.646832796E1,6.074788116E0,9.476573637E0,3.477397621E0,1.178137483E1
1.647836896E1,5.974962112E0,9.426736064E0,3.729940034E0,1.176758164E1
1.648840996E1,5.970318253E0,9.253449150E0,3.890461014E0,1.167932824E1
1.649845196E1,5.959758766E0,9.123635700E0,4.030044869E0,1.161898079E1
1.650849296E1,5.801509137E0,9.042264678E0,4.110017238E0,1.150270840E1
1.651853396E1,5.715584303E0,8.985203454E0,4.225319653E0,1.145666231E1
1.652857496E1,5.567576072E0,8.877780747E0,4.266842777E0,1.131454116E1
1.653861696E1,5.486080504E0,8.805695688E0,4.511971214E0,1.131349814E1
1.654865796E1,5.408962746E0,8.760409003E0,4.885521755E0,1.139605049E1
1.655869896E1,5.200490797E0,8.739460768E0,5.188318648E0,1.141673900E1
1.656874096E1,5.022205099E0,8.676323118E0,5.281492860E0,1.133116471E1
1.657878196E1,4.906160088E0,8.498669504E0,5.145196602E0,1.108020028E1
1.658882296E1,4.878429667E0,8.322479448E0,4.381751090E0,1.059539913E1
1.659886496E1,4.875955126E0,8.197092340E0,3.628136209E0,1.020444185E1
1.660890596E1,4.910153151E0,8.251662650E0,3.045999405E0,1.007361171E1
1.661894696E1,5.016992306E0,8.198724298E0,2.543005543E0,9.942643969E0
1.662898896E1,5.110067115E0,8.153708339E0,2.197035441E0,9.870294338E0
1.663902996E1,5.163759758E0,8.214074408E0,1.946557971E0,9.895681945E0
1.664907096E1,5.155504074E0,8.258426709E0,1.729857528E0,9.888035246E0
1.665911196E1,5.051480938E0,8.231710196E0,1.574937011E0,9.785649646E0
1.666915396E1,4.857298415E0,8.230871705E0,1.259792991E0,9.639900170E0
1.667919496E1,4.732277343E0,8.131208253E0,7.117850697E-1,9.434915712E0
1.668923596E1,3.927378872E0,7.330470661E0,-3.897837277E-1,8.325385052E0
1.669927796E1,7.337793714E-1,4.515683611E0,-3.900003963E0,6.011643831E0
1.670931896E1,-6.998278061E0,-3.112888629E0,-6.221197718E0,9.867586963E0
1.671935996E1,-2.003416530E1,-2.112994521E1,6.499064423E0,2.983421194E1
1.672940196E1,-4.047928227E1,-4.827757813E1,1.423067162E1,6.458954140E1
1.673944296E1,-6.110873155E1,-7.462849986E1,1.691282569E1,9.792718589E1
1.674948396E1,-6.121067425E1,-8.966308528E1,-2.476853887E1,1.113539223E2
1.675952596E1,-1.523896315E1,-5.917472054E1,-5.716421391E1,8.367568882E1
1.676956696E1,-1.207476696E1,-2.874658211E1,1.953155852E1,3.679195236E1
1.677960796E1,-1.047927698E1,-1.731840260E1,1.758369545E1,2.681284507E1
1.678964996E1,-4.095887441E0,-7.600965196E0,5.111329529E0,1.003377573E1
1.679969096E1,-4.997925121E-1,-1.646125692E0,3.008812283E0,3.465901572E0
1.680973196E1,3.825416880E0,2.932170489E0,-1.211378630E-1,4.821422245E0
1.681977396E1,5.287695002E0,4.900346201E0,-9.950798906E-2,7.209924630E0
1.682981496E1,4.926423029E0,5.775253385E0,6.974301553E-1,7.622965587E0
1.683985596E1,5.018938259E0,6.835668163E0,8.917821567E-2,8.480804988E0
1.684989696E1,5.225118685E0,7.592452235E0,-1.343870251E0,9.314138900E0
1.685993896E1,5.979228825E0,8.589328244E0,-5.852202158E0,1.199066333E1
1.686997996E1,6.102439014E0,9.648039143E0,-8.610972297E0,1.429941485E1
1.688002096E1,4.697467406E0,9.799000218E0,-5.804043320E0,1.231963977E1
