"Time (s)","Linear Acceleration x (m/s^2)","Linear Acceleration y (m/s^2)","Linear Acceleration z (m/s^2)","Absolute acceleration (m/s^2)"
2.432225000E-2,-6.481737953E-1,-1.303098786E-1,-4.878220922E-1,8.216327203E-1
3.433725000E-2,-4.713377680E-1,7.008355737E-2,-8.868594772E-1,1.006772431E0
4.435325000E-2,-3.891425805E-1,2.122451574E-1,-1.039823808E0,1.130359901E0
5.436825000E-2,-4.470525272E-1,1.696081379E-1,-9.153278160E-1,1.032689640E0
6.438325000E-2,-5.346666218E-1,-7.333080858E-2,-5.509135491E-1,7.712013632E-1
7.439825000E-2,-5.859582514E-1,-4.496894753E-1,-5.914458632E-3,7.386492248E-1
8.441425000E-2,-6.842024378E-1,-7.454147458E-1,6.111913258E-1,1.182087542E0
9.442925000E-2,-7.848881292E-1,-7.549886844E-1,1.135183125E0,1.573117292E0
1.044442500E-1,-6.817604944E-1,-7.012308455E-1,1.549914436E0,1.832691144E0
1.144601250E-1,-3.686482358E-1,-9.438362083E-1,1.571976566E0,1.870250955E0
1.244761250E-1,-3.771040405E-1,-1.024307637E0,1.138599653E0,1.577283348E0
1.344911250E-1,-6.649156894E-1,-7.925769255E-1,7.094005752E-1,1.254408320E0
1.445061250E-1,-8.815377800E-1,-7.221437046E-1,3.637324816E-1,1.196203037E0
1.545211250E-1,-7.902090955E-1,-8.031849441E-1,5.116880876E-1,1.237481785E0
1.645371250E-1,-4.107733315E-1,-1.075038957E0,5.813120538E-1,1.289328194E0
1.745521250E-1,4.487840340E-2,-1.674110174E0,9.777977139E-1,1.939264632E0
1.845671250E-1,1.352487293E0,-1.444388858E0,2.556362337E0,3.232718585E0
1.945821250E-1,2.109597932E0,-1.611905155E0,5.230258387E0,5.865513146E0
2.045981250E-1,2.008636398E0,-2.751239803E0,4.589100666E0,5.715224016E0
2.146131250E-1,2.390462211E0,-3.155513662E0,1.906931391E0,4.394082769E0
2.246281250E-1,2.296466466E0,-3.212693583E0,1.110768660E0,4.102312190E0
2.346431250E-1,2.197940297E0,-2.753961389E0,1.175527743E0,3.714446171E0
2.446591250E-1,1.937227862E0,-2.022871152E0,3.593546712E-1,2.823826352E0
2.546741250E-1,1.296426528E0,-1.708065394E0,-9.264422035E-1,2.335916156E0
2.646891250E-1,3.014026245E-1,-2.263916332E0,-1.279110584E0,2.617686877E0
2.747041250E-1,-2.934442717E-1,-2.933032368E0,-7.261598647E-1,3.035802458E0
2.847201250E-1,-7.324225250E-1,-3.407795289E0,2.640690297E-1,3.495603516E0
2.947351250E-1,-7.349961770E-1,-3.889564928E0,1.637347267E0,4.283671414E0
3.047501250E-1,-2.561065838E-1,-4.367119310E0,2.629264838E0,5.103954862E0
3.147651250E-1,1.622587726E-1,-4.116702359E0,3.146476205E0,5.184002193E0
3.247811250E-1,6.139713845E-1,-4.086751751E0,2.737109714E0,4.956840760E0
3.347961250E-1,5.373228657E-1,-3.988076479E0,1.694311427E0,4.366252521E0
3.448111250E-1,3.980772722E-1,-3.399433186E0,7.661185670E-1,3.507356435E0
3.548271250E-1,5.200832275E-1,-2.561952276E0,3.693545794E-1,2.640172122E0
3.648421250E-1,5.362177420E-1,-2.197311721E0,1.018280911E-1,2.264084192E0
3.748571250E-1,4.357847965E-1,-1.703070848E0,-5.423111254E-1,1.839690208E0
3.848721250E-1,-8.049803317E-2,-1.554051049E0,-1.480254802E0,2.147721787E0
3.948871250E-1,-2.800903713E0,-2.725793597E0,-3.123189084E0,5.002931381E0
4.049031250E-1,-4.343922528E0,-2.543577108E0,-3.896838865E0,6.365909250E0
4.149181250E-1,-4.334561428E0,2.943588639E0,-1.454424142E0,5.437691278E0
4.249331250E-1,-6.616525045E0,1.202267294E1,1.107232264E0,1.376768069E1
4.349491250E-1,-8.135369132E0,1.854464442E1,3.988789254E-1,2.025455929E1
4.449641250E-1,-7.587135361E0,1.235824348E1,-2.594176866E0,1.473161765E1
4.549791250E-1,-5.562633421E0,3.716304620E0,-4.209804066E0,7.904192614E0
4.649941250E-1,-2.625327322E0,4.713814759E-1,-3.418861730E0,4.336261013E0
4.750101250E-1,-1.324050237E0,-2.846205894E0,-1.490759325E-1,3.142645486E0
4.850251250E-1,2.093361676E-2,-3.975724236E0,3.716095582E0,5.442075687E0
4.950401250E-1,4.619847080E-1,-5.207341980E0,5.633278896E0,7.685289291E0
5.050551250E-1,9.906139335E-1,-5.777178288E0,6.490736818E0,8.745671465E0
5.150711250E-1,2.042846703E0,-5.652568275E0,9.145670348E0,1.094385841E1
5.250861250E-1,1.584545740E0,-5.970318253E0,9.470945692E0,1.130726747E1
5.351011250E-1,4.918888307E-1,-5.834880366E0,8.945648210E0,1.069169797E1
5.451161250E-1,8.590533355E-1,-4.810011397E0,8.444322558E0,9.756063024E0
5.551321250E-1,2.406403768E0,-3.479710779E0,6.981998827E0,8.163790408E0
5.651471250E-1,3.169401091E0,-3.139360728E0,5.089477315E0,6.767825973E0
5.751621250E-1,2.461074942E0,-4.487911676E0,2.770678871E0,5.820214986E0
5.851771250E-1,2.408326332E0,-5.140822885E0,-6.587564371E0,8.696211819E0
5.951931250E-1,4.974937962E0,-2.202014052E0,-3.945452733E1,3.982786211E1
6.052081250E-1,5.622561534E0,-6.037834883E-3,-2.559543808E1,2.620571855E1
6.152231250E-1,2.601022494E0,-4.664470106E-1,-1.850318883E1,1.869093062E1
6.252381250E-1,-2.652326256E-1,-9.581668568E-1,-1.257630837E1,1.261554455E1
6.352541250E-1,-5.134960467E-1,4.620844030E-1,-8.376857384E0,8.405292369E0
6.452691250E-1,-1.425226656E-1,1.299788092E0,-6.801128075E0,6.925684435E0
6.552841250E-1,-8.212151259E-2,8.940585691E-1,-5.655283138E0,5.726107931E0
6.652991250E-1,2.731523868E-1,2.674960828E-1,-5.695010875E0,5.707829294E0
6.753151250E-1,8.239071840E-1,-3.993437791E-1,-5.066871979E0,5.148930972E0
6.853301250E-1,-4.248616129E0,-3.365024661E0,8.419113457E-2,5.420444459E0
6.953451250E-1,-1.299793472E1,-7.121470708E0,1.082655014E1,1.835417772E1
7.053601250E-1,-2.991596326E0,-1.664880052E0,1.060569144E1,1.114460251E1
7.153761250E-1,3.380902190E0,8.445712441E-1,6.447998350E0,7.329425825E0
7.253911250E-1,8.412682982E-1,-3.877722563E0,1.343513337E1,1.400882841E1
7.354061250E-1,1.564223742E-1,-5.825512542E0,1.537939339E1,1.644648307E1
7.454211250E-1,4.835880064E0,-2.995838481E-1,1.218666980E1,1.311451132E1
7.554371250E-1,9.661260282E0,6.429741004E0,8.495785072E-1,1.163629250E1
7.654521250E-1,5.198744234E0,5.478301368E0,-6.390700314E0,9.893420945E0
7.754671250E-1,3.818246439E-2,3.423082834E0,-9.280878439E0,9.892100818E0
7.854821250E-1,-6.481287718E-1,3.091383154E0,-9.881534836E0,1.037407593E1
7.954981250E-1,5.200573535E-1,2.061224209E0,-7.865710748E0,8.147914486E0
8.055131250E-1,2.576168611E0,6.854503798E-1,-5.497928717E0,6.110131514E0
8.155281250E-1,4.536416084E0,-3.167787552E-2,-3.514163743E0,5.738416261E0
8.255431250E-1,4.252133229E0,-1.298640869E0,-2.977722053E0,5.351068466E0
8.355591250E-1,6.420407970E-1,-2.624885858E0,-1.492062231E0,3.086825530E0
8.455741250E-1,-1.413594205E0,-3.167000517E0,-1.123551112E0,3.645614893E0
8.555891250E-1,2.263216712E0,-1.762324485E0,-3.426492346E0,4.468644904E0
8.656041250E-1,4.017787936E0,-1.468970845E0,-1.701541509E0,4.603883008E0
8.756201250E-1,3.016444069E0,-2.607007996E0,-5.028379174E0,6.417166246E0
8.856351250E-1,3.549177748E0,-3.052119101E0,-6.510153083E0,8.018365597E0
8.956501250E-1,-2.464542925E-1,-5.116157575E0,-1.228486911E1,1.330991424E1
9.056651250E-1,-1.531280529E-1,-4.588701301E0,-8.527931310E0,9.685310540E0
9.156811250E-1,8.413105443E-1,-2.538884425E-1,-1.992890139E0,2.178043590E0
9.256961250E-1,-1.071284460E0,6.498248736E0,7.558523766E0,1.002527648E1
9.357111250E-1,-6.107158887E0,8.706629237E0,1.549687681E1,1.879510504E1
9.457261250E-1,-4.526740988E0,5.438605206E0,-9.913357723E-1,7.145107219E0
9.557421250E-1,-1.013748735E0,1.849914606E0,-6.606576008E0,6.935179673E0
9.657571250E-1,3.249025843E-1,-5.794637489E-1,-2.725901186E0,2.805686583E0
9.757721250E-1,7.462918282E-2,-2.254246645E0,1.958786546E0,2.987313539E0
9.857871250E-1,-1.895364136E0,-1.791088693E0,1.951500623E0,3.257108932E0
9.958031250E-1,-3.486427768E0,-1.780887641E0,1.463911250E0,4.179686055E0
1.005818125E0,-4.809709388E0,-2.479848597E0,-1.167020775E0,5.535782777E0
1.015833125E0,-4.249086830E0,-3.278051421E0,-3.297167431E0,6.298545314E0
1.025848125E0,-1.826447683E0,-2.665173758E0,-3.197818267E0,4.545888689E0
1.035864125E0,-2.705667481E-1,9.500731409E-2,-4.038731493E0,4.048899212E0
1.045879125E0,1.925735744E0,8.362190813E-1,-2.484899130E0,3.253066890E0
1.055894125E0,8.916965863E0,-1.033000107E0,4.870879158E0,1.021297377E1
1.065910125E0,8.055665735E0,-2.241972170E0,-4.081948264E0,9.304971320E0
1.075925125E0,4.840794064E0,1.996824145E-3,-5.073350694E0,7.012287674E0
1.085940125E0,1.867871113E0,3.514454350E0,2.006244010E0,4.457055856E0
1.095955125E0,1.866239155E0,4.390233938E0,1.998822431E0,5.172261955E0
1.105971125E0,2.944528871E0,3.275983261E0,-1.878268924E-1,4.408808858E0
1.115986000E0,2.968246055E0,2.146685944E0,-2.921204913E0,4.685315713E0
1.126001000E0,2.145297230E0,1.594232238E0,-5.116393218E0,5.772465348E0
1.136016000E0,9.375665313E-1,1.447853626E0,-7.688048948E0,7.879175576E0
1.146032000E0,-8.057814002E-1,1.245434715E0,-9.987125026E0,1.009668547E1
1.156047000E0,-1.651344332E0,2.582849640E-1,-1.142483958E1,1.154645438E1
1.166062000E0,-1.254928254E0,-1.066524534E0,-1.229976431E1,1.240953349E1
1.176077000E0,-5.672822446E-1,-1.642531993E0,-1.208187249E1,1.220620184E1
1.186093000E0,5.703216273E-1,-2.046524894E0,-1.126557780E1,1.146415169E1
1.196108000E0,1.788787229E0,-3.281915261E0,-1.026589922E1,1.092517342E1
1.206123000E0,2.605055026E0,-5.090295925E0,-7.646298659E0,9.547947815E0
1.216138000E0,3.084111557E0,-5.942501294E0,-4.121500000E0,7.862049858E0
1.226154000E0,3.808153560E0,-4.679177023E0,3.137765608E0,6.800169422E0
1.236169000E0,6.177444173E0,-3.132023642E0,1.536522909E1,1.685409902E1
1.246184000E0,9.081032887E0,2.340786606E-1,7.508360503E0,1.178539047E1
1.256199000E0,9.173404276E0,2.363245761E-1,-1.843111371E0,9.359714464E0
1.266215000E0,6.470497851E0,-1.881231709E0,-3.623852831E0,7.651057739E0
1.276230000E0,4.725795704E0,-2.783951173E0,-2.921808053E0,6.214538718E0
1.286245000E0,5.678696558E0,-3.168824263E0,-2.821145312E0,7.088575505E0
1.296260000E0,7.718214734E0,-2.939833850E0,-2.943494207E0,8.767988360E0
1.306276000E0,9.343233147E0,-1.483828620E0,-1.375094967E0,9.559740539E0
1.316291000E0,1.066114176E1,-7.977215981E-1,1.718375058E0,1.082816310E1
1.326306000E0,1.054030437E1,-1.742502424E0,3.244913496E0,1.116529420E1
1.336321000E0,9.715465726E0,-2.748636914E0,5.166377556E0,1.134181362E1
1.346337000E0,9.156950212E0,-2.560856507E0,6.239244565E0,1.137259407E1
1.356352000E0,8.829082797E0,-2.071946248E0,6.391115466E0,1.109468437E1
1.366367000E0,8.195031781E0,-1.022678602E0,6.840972172E0,1.072395998E1
1.376382000E0,7.257626633E0,5.903612047E-1,6.908879396E0,1.003764341E1
1.386398000E0,6.094941130E0,1.907217320E0,7.536949879E0,9.878835901E0
1.396413000E0,3.798241068E0,2.331528710E0,7.883782153E0,9.056306221E0
1.406428000E0,1.838281571E0,1.399306533E0,7.819460442E0,8.153606534E0
1.416443000E0,6.322886646E-1,7.442605054E-1,7.873351890E0,7.933686573E0
1.426459000E0,-3.103699145E-1,4.174064130E-1,7.769657952E0,7.787049653E0
1.436474000E0,-3.061251283E-1,7.428671139E-1,8.497308272E0,8.535210133E0
1.446489000E0,2.214562762E-1,2.915878392E0,9.446210216E0,9.888492156E0
1.456504000E0,3.149821982E-2,6.107467620E0,9.725036448E0,1.148383589E1
1.466520000E0,-1.207704825E0,7.796791372E0,9.865490077E0,1.263235533E1
1.476535000E0,-2.893872396E0,8.455392507E0,9.426797460E0,1.298971402E1
1.486550000E0,-4.627388234E0,9.384943090E0,8.496609530E0,1.347895590E1
1.496565000E0,-6.489314775E0,1.040442210E1,7.628314962E0,1.444141249E1
1.506581000E0,-8.171218995E0,1.069029364E1,6.779655345E0,1.506701445E1
1.516596000E0,-9.178573800E0,1.057492924E1,5.234996971E0,1.494926549E1
1.526611000E0,-9.759882345E0,1.015979447E1,3.362911185E0,1.448398767E1
1.536626000E0,-1.002186216E1,9.313037540E0,3.076103795E0,1.402258193E1
1.546642000E0,-9.618983159E0,9.049019381E0,3.677505420E0,1.370888890E1
1.556657000E0,-9.740860183E0,9.003692350E0,3.742227373E0,1.378241992E1
1.566672000E0,-1.168424662E1,9.106425591E0,-5.865102285E-1,1.482540389E1
1.576688000E0,-1.301953784E1,5.391064419E0,-2.481391093E0,1.430836269E1
1.586703000E0,-8.294123375E0,-1.092525932E0,4.723894482E0,9.607355232E0
1.596718000E0,-7.060556754E0,3.213601071E0,2.038903048E0,8.020961237E0
1.606733000E0,-8.506599498E0,5.925378892E0,-6.253316474E0,1.210687065E1
1.616748000E0,-6.033882165E0,3.025721262E0,-1.031950532E1,1.233105483E1
1.626764000E0,-3.583486286E0,2.369680622E0,-8.685979210E0,9.690355775E0
1.636779000E0,-1.675097476E0,2.291091120E0,-6.937939473E0,7.496002548E0
1.646794000E0,-5.922012504E-2,4.098558449E0,-4.536675115E0,6.114172837E0
1.656810000E0,1.943703214E0,5.791281772E0,-2.557254038E0,6.622422137E0
1.666825000E0,2.637455910E0,7.349553049E0,-2.525874370E-1,7.812547863E0
1.676840000E0,-1.250515214E0,6.722903439E0,-6.045833143E-1,6.864891837E0
1.686855000E0,-1.529826035E0,4.115867962E0,5.289169816E-1,4.422724268E0
1.696871000E0,-1.194544277E0,4.578716011E0,5.562697155E0,7.303093590E0
1.706886000E0,-3.100723497E0,2.750338454E0,5.687936913E0,7.037860054E0
1.716901000E0,-4.259563286E0,-7.209318691E-1,5.357702546E0,6.882484923E0
1.726916000E0,-4.031911885E0,2.008685807E0,4.241737465E0,6.187363642E0
1.736932000E0,-3.080554111E0,1.295556462E0,4.378211478E0,5.507904858E0
1.746947000E0,-2.026650939E0,-1.190344003E0,2.813342788E0,3.665941968E0
1.756962000E0,-1.354724145E0,-4.399755544E0,3.466831702E0,5.762989537E0
1.766977000E0,-9.869690716E-2,-5.552262214E0,2.856469511E0,6.244739774E0
1.776993000E0,1.699719078E0,-6.644598697E0,2.900826489E0,7.446779915E0
1.787008000E0,3.969911811E0,-5.519614871E0,2.969652311E0,7.419244096E0
1.797023000E0,2.329000081E0,-4.390518698E0,3.014567113E0,5.812788547E0
1.807038000E0,3.251572890E0,-5.633819763E0,3.597425171E0,7.433311458E0
1.817054000E0,3.355507733E0,-6.622292739E0,3.854406790E0,8.364845782E0
1.827069000E0,1.685439885E0,-7.685767365E0,1.009079382E1,1.279593090E1
1.837084000E0,2.658448876E0,-2.730671344E0,-2.890944110E0,4.783458400E0
1.847099000E0,5.737217832E-1,2.886322471E0,-7.107308167E0,7.692453671E0
1.857115000E0,-1.884856836E0,-2.528125548E-1,-3.641333667E0,4.108029985E0
1.867130000E0,4.494664040E-1,-2.168955064E0,-5.224767852E-1,2.275822513E0
1.877145000E0,9.853129940E-1,-3.488214970E-2,-2.656833290E0,2.833870426E0
1.887160000E0,-1.274177288E0,-2.134469356E0,-3.692897923E0,4.451626923E0
1.897176000E0,-2.583793965E0,-6.152597015E0,-1.626845668E0,6.868556479E0
1.907191000E0,-1.387092431E0,-3.018246766E0,1.099232689E0,3.498878599E0
1.917206000E0,1.643517249E0,9.182525933E-1,1.708912509E0,2.542581117E0
1.927221000E0,2.591757873E0,-2.191809492E0,2.142143242E0,4.013728365E0
1.937237000E0,2.152412122E0,1.932978398E-1,-2.584432773E-3,2.161075815E0
1.947252000E0,-2.132668121E-1,2.831708307E0,-7.721313758E0,8.226952098E0
1.957267000E0,-3.369019186E0,1.315990142E0,-1.010635443E1,1.073408218E1
1.967282000E0,-4.538854373E0,-4.275210435E0,-6.573338095E0,9.060209545E0
1.977298000E0,-1.074027681E0,-2.027323222E-1,-3.496838443E0,3.663675061E0
1.987313000E0,1.682536304E-3,-5.331214659E0,-3.973704607E0,6.649224081E0
1.997328000E0,1.022405830E0,-6.372276322E0,6.283757079E-1,6.484294506E0
2.007343000E0,4.314322461E0,-2.358466247E0,3.561623254E0,6.071317941E0
2.017359000E0,6.162641362E0,6.222864175E-1,-7.477200106E-2,6.194431354E0
2.027374000E0,3.706975387E0,-3.600797260E-1,-4.404985878E0,5.768468126E0
2.037389000E0,1.931308725E0,-2.645165171E0,-2.419180957E0,4.071767267E0
2.047404000E0,1.191117736E0,-5.613792465E0,-2.169383081E0,6.135116156E0
2.057420000E0,2.043689725E0,-5.955894341E0,-1.453925959E0,6.462448901E0
2.067435000E0,3.221249522E0,-3.789036673E0,-2.584002126E0,5.604490555E0
2.077450000E0,2.938671423E0,-1.462298588E0,-3.307923676E0,4.660092911E0
2.087465000E0,1.904440185E0,2.781286597E-1,-2.011003205E0,2.783591539E0
2.097481000E0,3.906995478E-1,1.921638892E0,8.820276305E-2,1.962937059E0
2.107496000E0,-1.328574520E0,2.323399910E0,2.485123955E0,3.652278531E0
2.117510750E0,-2.471127475E0,2.758538005E0,3.643948542E0,5.195610060E0
2.127526750E0,-2.918705813E0,2.833561290E0,2.515376279E0,4.782784862E0
2.137541750E0,-2.632914962E0,2.183968960E0,1.278868801E0,3.652049702E0
2.147556750E0,-2.392905470E0,1.890228819E0,5.570940560E-1,3.099889573E0
2.157571750E0,-2.523750077E0,1.585763131E0,-6.876091719E-2,2.981390149E0
2.167587750E0,-3.003426705E0,8.908010852E-1,-2.261957368E-1,3.140901632E0
2.177602750E0,-2.853013807E0,1.002628500E0,7.458991876E-1,3.114693771E0
2.187617750E0,-1.683805735E0,6.377020168E-1,8.680165324E-1,1.998829236E0
2.197632750E0,-5.306573322E-1,4.037648588E-1,2.072247380E-1,6.982588041E-1
2.207648750E0,1.018049946E-1,4.739753008E-3,-4.343213846E-1,4.461185799E-1
2.217663750E0,2.740382400E-1,-1.552660289E0,-1.077919003E0,1.909911073E0
2.227678750E0,6.258035177E-1,-2.979590238E0,-1.573010646E0,3.426944780E0
2.237693750E0,8.880268738E-1,-4.150268885E0,-1.595782335E0,4.534296507E0
2.247709750E0,4.454318252E-1,-6.532912200E0,-3.338647286E0,7.350096396E0
2.257724750E0,-1.052247387E-1,-6.833411722E0,-3.163880442E0,7.531050887E0
2.267739750E0,-2.510238916E-1,-7.887572318E0,-2.317227005E0,8.224740182E0
2.277754750E0,4.411374839E-1,-8.652962322E0,-1.919075034E0,8.874187750E0
2.287770750E0,1.994730842E0,-9.825921968E0,-1.713689830E0,1.017174648E1
2.297785750E0,3.763748343E0,-9.987049012E0,-1.701599981E0,1.080751554E1
2.307800750E0,5.033739316E0,-5.553815820E0,-8.415026253E-1,7.542647303E0
2.317815750E0,4.629178652E0,-3.695439708E0,2.149493484E-1,5.927206158E0
2.327831750E0,3.714796915E0,-5.959517276E0,9.709564716E-1,7.089310175E0
2.337846750E0,3.532932136E0,-1.558727360E-1,2.738481470E0,4.472715791E0
2.347861750E0,3.874980803E0,2.505592718E0,5.359288895E0,7.072160105E0
2.357876750E0,3.205349481E0,7.843182011E0,4.794349630E0,9.735273891E0
2.367892750E0,-1.737523959E0,7.950270842E0,4.717062303E0,9.406193318E0
2.377907750E0,-6.703253286E0,5.158412479E0,2.100473059E0,8.715205735E0
2.387922750E0,-1.061539548E1,3.851919385E0,-6.286119354E-1,1.131013073E1
2.397937750E0,-1.160114249E1,2.685758881E0,-2.184447262E0,1.210667657E1
2.407953750E0,-9.283700890E0,1.479879996E0,-3.181046113E0,9.924525248E0
2.417968750E0,-5.255519528E0,1.097169791E0,-2.748632237E0,6.031521055E0
2.427983750E0,-2.344166589E0,4.144939148E-1,-7.791274524E-1,2.504787773E0
2.437999750E0,-8.128196937E-1,5.492301357E-1,8.146392741E-1,1.275134010E0
2.448014750E0,2.704327007E-1,2.135642892E-1,1.791477533E0,1.824317764E0
2.458029750E0,9.041032085E-1,-1.950017184E-1,3.753786149E0,3.866049500E0
2.468044750E0,7.094051068E-1,-3.352156109E-1,5.245191591E0,5.303551635E0
2.478060750E0,2.289331108E-1,3.957284456E-1,5.019200799E0,5.039978972E0
2.488075750E0,-1.281578401E0,4.803885269E-1,3.409398011E0,3.673855078E0
2.498090750E0,-2.655977842E0,4.973635787E-1,2.190093918E0,3.478232338E0
2.508105750E0,-3.259763085E0,1.104113944E0,7.732755589E-1,3.527474743E0
2.518121750E0,-3.525089558E0,1.735873436E0,-3.799369069E-1,3.947640438E0
2.528136750E0,-3.503785520E0,2.418590827E0,-9.266269024E-1,4.357147229E0
2.538151750E0,-2.740318958E0,2.983803742E0,-1.115102690E0,4.201890856E0
2.548166750E0,-1.895528151E0,3.022103004E0,-1.236044086E0,3.775438852E0
2.558182750E0,-1.180592309E0,2.885737749E0,-2.265371557E0,3.853983504E0
2.568197750E0,-5.742462053E-1,2.899836556E0,-3.370626293E0,4.483294811E0
2.578212750E0,-6.659461150E-1,8.268448251E-1,-2.426483399E0,2.648580427E0
2.588227750E0,-4.575736416E-1,2.187414140E-1,-1.371350995E0,1.462130294E0
2.598243750E0,4.883756408E-1,-7.275105715E-1,-1.142528397E0,1.439844969E0
2.608258750E0,1.444007620E0,-2.282171193E0,-1.794219439E0,3.242327367E0
2.618273750E0,1.901326542E0,-2.015870281E0,-1.602444652E0,3.201031783E0
2.628288750E0,1.538347913E0,-2.853376919E0,-1.337640628E0,3.506787218E0
2.638304750E0,1.318401680E0,-4.153935674E0,-1.367024056E0,4.567506907E0
2.648319750E0,1.357106009E0,-4.686163276E0,-1.716982251E0,5.172029681E0
2.658334750E0,1.356205976E0,-5.251792513E0,-1.664297669E0,5.673667771E0
2.668349750E0,1.221683982E0,-5.584397927E0,-1.517679906E0,5.914504566E0
2.678365750E0,1.035559872E0,-5.996872213E0,-7.927263218E-1,6.137041275E0
2.688380750E0,5.956747523E-1,-6.567009653E0,4.720825571E-1,6.610847611E0
2.698395750E0,2.616728224E-1,-5.786759536E0,1.077714935E0,5.892073325E0
2.708410750E0,-4.524623711E-1,-5.371775039E0,5.916411602E-1,5.423165914E0
2.718426750E0,-9.555399951E-1,-5.658480980E0,6.763076735E-1,5.778309074E0
2.728441750E0,-2.150228041E-1,-5.373179541E0,1.840251498E0,5.683644848E0
2.738456750E0,5.621172893E-1,-5.609577792E0,2.645665108E0,6.227590442E0
2.748471750E0,1.411147584E0,-5.860862469E0,2.118322270E0,6.389705441E0
2.758487750E0,2.495688412E0,-5.045106888E0,2.524394294E-1,5.634295859E0
2.768502750E0,3.851293440E0,-2.741928989E0,-4.713956262E0,6.676227931E0
2.778517750E0,4.678193814E0,6.249001229E-1,-8.603738122E0,9.813271992E0
2.788533750E0,4.837659664E0,3.972138723E0,-6.661725776E0,9.141084584E0
2.798548750E0,4.886888250E0,1.724950837E1,9.651648045E-1,1.795435209E1
2.808563750E0,1.666979494E0,4.141653481E1,9.301742474E0,4.248094384E1
2.818578750E0,-1.499461298E0,3.167089628E1,1.794813370E0,3.175713165E1
2.828594750E0,2.313197250E0,8.162297314E0,-3.802562453E0,9.296959727E0
2.838609750E0,2.371402481E0,-2.448263692E0,6.319822705E-1,3.466546758E0
2.848624750E0,-1.530294908E-1,-5.781253797E0,1.213969678E0,5.909317716E0
2.858639750E0,-1.418459965E0,-5.984802976E0,2.333974600E-1,6.155028002E0
2.868655750E0,-2.871501533E0,-3.132491419E0,2.608021903E-1,4.257468888E0
2.878670750E0,-2.337761549E0,-1.021793919E0,4.315479040E-1,2.587552022E0
2.888685750E0,-1.884953388E-1,-9.787513947E-1,3.590400910E-1,1.059431250E0
2.898700750E0,5.219110671E-1,-1.294082964E0,3.042118828E-1,1.428141012E0
2.908716750E0,5.664714916E-1,-1.254980879E0,5.897209346E-1,1.497877745E0
2.918731750E0,5.334751786E-1,-1.161490917E0,1.061125799E0,1.661217890E0
2.928746750E0,1.874557404E-1,-1.102703596E0,1.050790188E0,1.534683972E0
2.938761750E0,-2.248166710E-2,-8.972265905E-1,6.971003723E-1,1.136428576E0
2.948777750E0,-1.695312470E-1,-3.879756224E-1,1.021567120E0,1.105832405E0
2.958792750E0,-3.882943688E-1,2.252821094E-1,1.212951166E0,1.293358062E0
2.968807750E0,-5.358396464E-1,6.973564804E-1,9.776041710E-1,1.314967719E0
2.978822750E0,-6.626323517E-1,9.884039783E-1,5.499318016E-1,1.310896275E0
2.988838750E0,-7.014225610E-1,1.046101964E0,8.914571428E-1,1.543055010E0
2.998853750E0,-7.341377326E-1,8.499559450E-1,1.881132160E0,2.190899706E0
3.008868750E0,-6.106954088E-1,6.256456429E-1,2.392271194E0,2.547026269E0
3.018883750E0,-2.947463735E-1,4.827771145E-1,2.552554046E0,2.614475344E0
3.028899750E0,6.160845682E-2,2.899961686E-1,2.605231612E0,2.622045982E0
3.038914750E0,1.359726146E-1,7.927362621E-2,2.463049546E0,2.468073323E0
3.048929750E0,-1.592810780E-2,-2.260118419E-1,1.969824335E0,1.982811884E0
3.058944750E0,-2.685137907E-1,-6.444257301E-1,1.442044856E0,1.602147791E0
3.068960750E0,-3.693308982E-1,-9.690461862E-1,1.042271014E0,1.470300884E0
3.078975750E0,-4.708965225E-1,-1.288187801E0,1.028863202E0,1.714564328E0
3.088990750E0,-7.913669904E-1,-1.593765630E0,1.543159879E0,2.355354115E0
3.099006750E0,-1.148361506E0,-1.652757604E0,1.513492276E0,2.518134372E0
3.109021750E0,-8.500706235E-1,-5.124184048E-1,1.900964892E0,2.144495327E0
3.119036875E0,-8.278832906E-1,-5.933935708E-1,1.894100261E0,2.150609790E0
3.129051875E0,-6.121309002E-1,-5.391226387E-1,1.875111720E0,2.044847530E0
3.139067875E0,1.327268252E0,-6.035712343E-1,1.761908456E0,2.286976312E0
3.149082875E0,2.543322754E0,-3.449283038E0,3.687282257E0,5.653502857E0
3.159097875E0,-4.209173736E-1,-1.353976579E0,2.195932802E0,2.613913710E0
3.169112875E0,-8.072107521E-1,1.114191620E0,1.115831326E0,1.771465978E0
3.179128875E0,-2.100044312E-1,2.093655206E0,1.424016574E0,2.540731624E0
3.189143875E0,4.541402297E-1,2.435655341E0,1.158071465E0,2.734920439E0
3.199158875E0,9.328513366E-1,2.111849402E0,5.503184487E-1,2.373387855E0
3.209173875E0,1.216900741E0,1.417897171E0,-2.354346299E-1,1.883270895E0
3.219189875E0,1.005437795E0,8.876763332E-1,-1.233630648E0,1.822284008E0
3.229204875E0,7.509134674E-1,6.309935063E-1,-1.902838486E0,2.140751771E0
3.239219875E0,3.903209772E-1,5.460112435E-1,-2.458361249E0,2.548336472E0
3.249234875E0,4.747946419E-2,1.508265889E-1,-3.392466813E0,3.396149885E0
3.259250875E0,-1.211224044E-1,-3.972335190E-1,-3.516811363E0,3.541246569E0
3.269265875E0,1.114706322E0,-3.746159041E-1,-4.227083173E0,4.387612039E0
3.279280875E0,1.019506634E0,-2.676223826E-1,-3.500067276E0,3.655336708E0
3.289295875E0,1.471016494E0,3.571362376E-2,-2.630926616E0,3.014455149E0
3.299311875E0,2.912585240E0,7.832351214E-1,-1.969932801E0,3.602394381E0
3.309326875E0,3.034756964E0,1.497294758E0,-2.336536850E0,4.112304205E0
3.319341875E0,1.570406881E0,1.816545716E0,-1.697150835E0,2.940465450E0
3.329357875E0,1.591494864E0,2.818785961E0,-9.262294380E-1,3.366943891E0
3.339372875E0,1.302313505E0,3.239502482E0,-8.175705564E-1,3.585919466E0
3.349387875E0,2.367864331E-1,3.523585362E0,-9.949329793E-1,3.669007121E0
3.359402875E0,-9.466937426E-1,3.539772209E0,-1.092538211E0,3.823592038E0
3.369418875E0,-1.708205581E0,2.966244553E0,-1.193005071E0,3.624890916E0
3.379433875E0,-2.229615541E0,3.234623566E0,-1.353242168E0,4.155146139E0
3.389448875E0,-3.010339576E0,3.143474829E0,-1.617419372E0,4.643234195E0
3.399463875E0,-3.254428085E0,2.199584534E0,-1.845707535E0,4.340058823E0
3.409479875E0,-3.292429432E0,8.569468760E-1,-1.871687883E0,3.882996915E0
3.419494875E0,-3.020363750E0,-2.216907495E-1,-1.645732759E0,3.446763741E0
3.429509875E0,-2.623381954E0,-9.710196215E-1,-1.080195909E0,2.998638888E0
3.439524875E0,-1.895578144E0,-1.785461333E0,-8.686600184E-1,2.745115462E0
3.449540875E0,-9.871345478E-1,-2.262514023E0,-5.815734974E-1,2.536066256E0
3.459555875E0,-3.967768149E-1,-2.688245117E0,-1.916904402E-1,2.724121670E0
3.469570875E0,8.544056579E-2,-2.692848045E0,-1.248170042E-1,2.697092874E0
3.479585875E0,2.807466957E-1,-3.010821387E0,-3.130475007E-2,3.024044331E0
3.489601875E0,5.028683668E-1,-2.679505284E0,3.442876390E-1,2.747937252E0
3.499616875E0,5.986419950E-1,-2.071607110E0,5.728354184E-1,2.231158594E0
3.509631875E0,4.528506263E-1,-1.843008460E0,6.203450688E-1,1.996642651E0
3.519646875E0,2.518337675E-1,-1.656164192E0,7.245753423E-1,1.825187526E0
3.529662875E0,-2.468933819E-2,-1.723097270E0,9.129585973E-1,1.950171060E0
3.539677875E0,-4.878668234E-1,-1.815173959E0,1.106811338E0,2.181261533E0
3.549692875E0,-9.876600663E-1,-1.990626097E0,1.040092268E0,2.453539604E0
3.559708875E0,-1.312331686E0,-2.107438263E0,9.023668778E-1,2.641548119E0
3.569723875E0,-1.880543491E0,-2.103322408E0,6.962162733E-1,2.906049909E0
3.579738875E0,-2.201172930E0,-1.965429860E0,6.569850377E-1,3.023194691E0
3.589753875E0,-2.328689155E0,-1.982579743E0,1.067251416E0,3.239203792E0
3.599769875E0,-2.559167539E0,-2.584330155E0,1.335111122E0,3.874354469E0
3.609784875E0,-2.782266298E0,-3.036308815E0,1.705459728E0,4.457439832E0
3.619799875E0,-2.762974287E0,-3.327684926E0,2.269042439E0,4.884267343E0
3.629814875E0,-2.776269394E0,-3.178116074E0,2.882761517E0,5.110617134E0
3.639830875E0,-2.364629797E0,-2.157141935E0,2.590197251E0,4.117506187E0
3.649845875E0,-2.267807508E0,-2.911264354E-1,1.130408288E0,2.550593733E0
3.659860875E0,-1.982892423E0,1.207103877E0,-7.188439746E-1,2.430164355E0
3.669875875E0,-1.629346230E0,9.811820823E-1,-2.230932773E0,2.931646031E0
3.679891875E0,6.666483656E-3,1.675990931E0,-2.797457657E0,3.261097880E0
3.689906875E0,1.348698443E0,1.908612465E0,-2.722656566E0,3.588125947E0
3.699921875E0,2.315763154E0,2.921709820E0,-2.198668860E0,4.328197317E0
3.709936875E0,3.332335509E0,4.639648091E0,-8.911484098E-1,5.781430605E0
3.719952875E0,2.886842288E0,3.419251739E0,1.019659539E0,4.589645566E0
3.729967875E0,2.263468143E0,1.943571213E0,2.608844022E0,3.963183597E0
3.739982875E0,7.056444700E-1,1.256595295E0,3.310747297E0,3.610818954E0
3.749997875E0,-1.405347584E0,8.769630647E-1,3.637053505E0,3.996526523E0
3.760013875E0,-2.902354659E0,5.315329528E-1,2.810113370E0,4.074668944E0
3.770028875E0,-3.153044675E0,5.971299416E-1,6.873530638E-1,3.281875854E0
3.780043875E0,-2.081281182E0,1.052167280E0,-6.002856473E-1,2.408138327E0
3.790059875E0,-7.267850051E-1,1.477522983E0,-1.699002063E0,2.365987874E0
3.800074875E0,1.345251948E0,2.494048560E0,-2.427864511E0,3.731555588E0
3.810089875E0,3.011454348E0,4.001417486E0,-1.717265257E0,5.294260963E0
3.820104875E0,2.771999757E0,4.731868038E0,-4.097132313E-1,5.499311112E0
3.830120875E0,1.928743259E0,3.822837673E0,-5.131633035E-1,4.312478987E0
3.840135875E0,1.358060274E0,2.389041338E0,-7.202062297E-1,2.840870155E0
3.850150875E0,6.079076026E-1,1.311922819E0,-6.414676237E-1,1.581826112E0
3.860165875E0,-3.046455269E-1,3.959582412E-1,-7.905517423E-1,9.351812034E-1
3.870181875E0,-1.082428083E0,-8.993894756E-2,-9.035257228E-1,1.412833430E0
3.880196875E0,-1.241301464E0,-2.277338469E-1,-1.199698963E0,1.741255189E0
3.890211875E0,-9.287696146E-1,-6.736536223E-1,-1.254474510E0,1.700037793E0
3.900226875E0,-6.426040301E-1,-7.390272474E-1,-1.355999569E0,1.672673322E0
3.910242875E0,-4.710372211E-1,-5.036183453E-1,-1.546662215E0,1.693420063E0
3.920257875E0,-1.503907155E-1,-4.402690262E-1,-1.442880131E0,1.516033395E0
3.930272875E0,3.845859184E-1,-2.045934910E-1,-1.161481489E0,1.240485418E0
3.940287875E0,9.637180571E-1,4.935868621E-2,-1.009739226E0,1.396696845E0
3.950303875E0,1.529880706E0,3.898905855E-1,-9.389889396E-1,1.836913137E0
3.960318875E0,2.247857392E0,5.098117161E-1,-1.021176453E0,2.521026019E0
3.970333875E0,3.012476149E0,3.024133158E-1,-6.500608380E-1,3.096618390E0
3.980349875E0,3.394373298E0,-2.942833471E-1,3.187024891E-1,3.421979552E0
3.990364875E0,3.145651163E0,-1.173437364E0,6.525422502E-1,3.420217518E0
4.000379875E0,2.519743272E0,-1.929319795E0,7.454336031E-1,3.259915994E0
4.010394875E0,1.786183610E0,-2.531581838E0,6.456985228E-1,3.164851509E0
4.020410875E0,1.206913916E0,-2.896290219E0,4.076515031E-1,3.164066684E0
4.030425875E0,7.447964758E-1,-3.043657011E0,2.053844731E-1,3.140183525E0
4.040440875E0,2.639902019E-1,-2.960106146E0,1.541209102E-2,2.971894473E0
4.050455875E0,1.349516907E-1,-2.396632193E0,-1.345546648E-2,2.400466388E0
4.060471875E0,1.046082777E-1,-1.545341329E0,9.070186302E-2,1.551531354E0
4.070486875E0,2.285347144E-1,-6.012557369E-1,-6.391693756E-2,6.463914850E-1
4.080501875E0,3.122344454E-1,1.762222159E-1,-3.430481024E-1,4.962122719E-1
4.090516875E0,4.984042369E-1,6.687618417E-1,-4.036294958E-1,9.265883412E-1
4.100532875E0,7.720125604E-1,6.977014661E-1,-7.440801188E-2,1.043229256E0
4.110547875E0,1.001157925E0,3.603773493E-1,5.321540733E-1,1.189696172E0
4.120563000E0,9.329785135E-1,3.514761329E-3,1.218800647E0,1.534905951E0
4.130578000E0,5.763207243E-1,-1.838048851E-1,1.582664837E0,1.694331078E0
4.140594000E0,1.376396923E-1,-2.269579214E-1,1.728531672E0,1.748792819E0
4.150609000E0,-3.110073341E-1,-2.209861600E-1,1.770917992E0,1.811549331E0
4.160624000E0,-8.980620115E-1,-2.778924322E-1,1.634569255E0,1.885618262E0
4.170640000E0,-1.364624358E0,-3.454616868E-1,1.492403562E0,2.051538888E0
4.180655000E0,-1.556328978E0,-1.935445923E-1,1.615357351E0,2.251443708E0
4.190670000E0,-1.474474683E0,-9.727369487E-2,1.951458815E0,2.447800905E0
4.200685000E0,-1.031304269E0,-2.915737474E-1,2.237875903E0,2.481268285E0
4.210701000E0,-4.949213429E-1,-5.434659505E-1,2.543303166E0,2.647393694E0
4.220716000E0,-4.401254039E-1,-5.437396002E-1,3.023673567E0,3.103540714E0
4.230731000E0,-5.218820137E-1,-6.115766573E-1,3.090842579E0,3.193696087E0
4.240746000E0,-3.230280766E-1,-9.152874702E-1,2.629353715E0,2.802784196E0
4.250762000E0,2.390351260E-1,-1.220754787E0,1.958107976E0,2.319820443E0
4.260777000E0,-8.317320742E-2,-1.224939639E0,1.938707500E0,2.294772684E0
4.270792000E0,-1.082490648E0,-4.999234897E-1,2.026411349E0,2.351181076E0
4.280807000E0,-2.399182018E0,5.065559864E-2,2.225667209E0,3.272955067E0
4.290823000E0,-2.865478317E0,4.617867798E-1,2.137399103E0,3.604537132E0
4.300838000E0,-2.630291901E0,1.092152295E0,2.318601393E0,3.672484791E0
4.310853000E0,-1.917165188E0,1.832752444E0,2.178514677E0,3.432263113E0
4.320868000E0,-8.826402725E-1,2.724047619E0,1.588984362E0,3.274806953E0
4.330884000E0,7.837739423E-2,3.271413077E0,7.323500195E-1,3.353300328E0
4.340899000E0,9.671225984E-1,3.189702331E0,1.181160951E-1,3.335187925E0
4.350914000E0,1.113572108E0,2.414633431E0,4.580384222E-1,2.698202484E0
4.360930000E0,4.454715132E-1,1.228606428E0,9.788505051E-1,1.632809522E0
4.370945000E0,-9.165759042E-2,2.981179512E-1,8.003317952E-1,8.589565816E-1
4.380960000E0,-4.504628427E-1,-5.159711730E-1,1.699966854E-1,7.057208351E-1
4.390975000E0,-6.629787261E-1,-1.350874046E0,-7.987530470E-1,1.703645477E0
4.400991000E0,-7.301777789E-1,-1.987448720E0,-2.323233557E0,3.143330425E0
4.411006000E0,-5.700093494E-1,-2.301832455E0,-3.803406790E0,4.482102913E0
4.421021000E0,2.754155882E-1,-2.191999526E0,-4.735873965E0,5.225822221E0
4.431036000E0,1.479355062E0,-1.761787711E0,-5.002857832E0,5.506448385E0
4.441052000E0,2.502309214E0,-1.303149657E0,-4.780894017E0,5.551278955E0
4.451067000E0,3.574804924E0,-5.377543902E-1,-4.262740663E0,5.589218907E0
4.461082000E0,4.495565973E0,4.076193434E-1,-3.093532591E0,5.472313116E0
4.471097000E0,5.130330057E0,2.033794336E0,-1.831268420E0,5.814649595E0
4.481113000E0,5.399049377E0,3.814182624E0,-7.318316638E-1,6.650812044E0
4.491128000E0,4.728286033E0,5.006537485E0,-3.113853566E-1,6.893407520E0
4.501143000E0,3.197896035E0,5.004658189E0,-6.634671148E-1,5.976063190E0
4.511158000E0,1.741656040E0,4.449544001E0,-8.680647719E-1,4.856474444E0
4.521174000E0,3.690029060E-1,3.929360493E0,-9.831625342E-1,4.067265125E0
4.531189000E0,-1.048434199E0,3.298504981E0,-1.672668543E0,3.844108406E0
4.541204000E0,-2.652261937E0,2.687350493E0,-1.929715651E0,4.240300526E0
4.551220000E0,-3.604354121E0,1.833956385E0,-1.704048210E0,4.388455874E0
4.561235000E0,-4.072086642E0,4.978313559E-1,-1.710443895E0,4.444698415E0
4.571250000E0,-4.140349376E0,-4.199932212E-1,-1.336774070E0,4.371024157E0
4.581265000E0,-3.790716286E0,-9.129240257E-1,-6.235061467E-1,3.948635227E0
4.591281000E0,-3.299427380E0,-1.274041048E0,-3.653819446E-1,3.555686374E0
4.601296000E0,-2.634584342E0,-2.137143872E0,-3.742639017E-1,3.412988728E0
4.611311000E0,-1.660536009E0,-2.236936548E0,-3.272838628E-1,2.805063223E0
4.621326000E0,-1.221662859E0,-2.369623320E0,2.650308967E-2,2.666135261E0
4.631342000E0,-5.518316716E-1,-2.446969119E0,2.810463472E-1,2.524116303E0
4.641357000E0,9.363605065E-2,-2.202899905E0,5.016876677E-1,2.261244396E0
4.651372000E0,1.500788031E-1,-2.083104490E0,5.045305840E-1,2.148580711E0
4.661387000E0,3.955200655E-1,-1.799395248E0,4.881901013E-1,1.905935192E0
4.671403000E0,9.008492330E-1,-1.462770458E0,7.479489291E-1,1.873674025E0
4.681418000E0,1.124552886E0,-1.361763316E0,1.098218270E0,2.079687931E0
4.691433000E0,1.020666649E0,-1.706020476E0,1.192054313E0,2.318029283E0
4.701449000E0,5.734800739E-1,-2.321371511E0,1.008247162E0,2.595035150E0
4.711464000E0,1.238360150E-1,-2.695557645E0,7.442349239E-1,2.799152014E0
4.721479000E0,-2.551193180E-1,-2.772381288E0,6.645970161E-1,2.862319525E0
4.731494000E0,-6.044669547E-1,-2.665617562E0,8.868423741E-1,2.873566892E0
4.741510000E0,-9.952209547E-1,-2.527206366E0,1.320803132E0,3.020224773E0
4.751525000E0,-1.465020028E0,-2.509555376E0,1.686308781E0,3.359730521E0
4.761540000E0,-1.890988957E0,-2.650178574E0,1.893871050E0,3.766435087E0
4.771555000E0,-2.582578914E0,-3.339262998E0,2.112914765E0,4.720677919E0
4.781571000E0,-2.749143576E0,-3.022383671E0,2.083949997E0,4.586441000E0
4.791586000E0,-2.579896211E0,-2.020098403E0,1.764835864E0,3.721734494E0
4.801601000E0,-2.364463444E0,-9.571652287E-1,5.987233078E-1,2.620175997E0
4.811616000E0,-2.154867660E0,1.752007073E-1,-1.563263630E0,2.667947356E0
4.821632000E0,-1.298717906E0,1.427923391E0,-2.760803801E0,3.368630439E0
4.831647000E0,-4.644766451E-1,1.943113376E0,-3.370111738E0,3.917790356E0
4.841662000E0,1.385551470E-1,2.582121077E0,-3.283377650E0,4.179367844E0
4.851678000E0,1.120298599E0,4.518973255E0,-2.215167364E0,5.155885440E0
4.861693000E0,1.695997910E0,4.959605978E0,-6.335716168E-1,5.279726637E0
4.871708000E0,2.393218881E0,4.664067233E0,1.998745540E0,5.610347895E0
4.881723000E0,1.591148124E0,3.371731417E0,4.664341468E0,5.971298555E0
4.891739000E0,-1.605928643E-2,1.701754932E0,4.819337121E0,5.110991884E0
4.901754000E0,-1.312422171E0,7.634428811E-1,4.428878771E0,4.681908175E0
4.911769000E0,-2.517893798E0,1.243275923E-1,3.922237415E0,4.662530737E0
4.921784000E0,-3.426366631E0,-4.983424026E-1,2.563517575E0,4.308126716E0
4.931800000E0,-2.813433127E0,-4.864450729E-1,1.237864909E0,3.111967915E0
4.941815000E0,-1.480524066E0,1.884107369E-1,-8.733390335E-1,1.729211145E0
4.951830000E0,3.815153627E-1,1.337558767E0,-3.694517602E0,3.947667379E0
4.961845000E0,3.582965299E0,3.601166804E0,-5.300644830E0,7.341857960E0
4.971861000E0,6.157094693E0,6.321951676E0,-4.331187000E0,9.830364636E0
4.981876000E0,6.463038558E0,7.683054841E0,-2.224223531E0,1.028335400E1
4.991891000E0,5.281885208E0,5.719866219E0,-1.168852562E0,7.872826508E0
5.001907000E0,3.292916213E0,2.669116536E0,-9.973642516E-1,4.354562632E0
5.011922000E0,1.716048159E0,9.080597270E-1,-6.718157693E-1,2.054441573E0
5.021937000E0,3.853950269E-1,2.219661534E-2,-7.423122132E-1,8.366895711E-1
5.031952000E0,-1.058634739E0,-5.438278931E-1,-9.156750675E-1,1.501638145E0
5.041968000E0,-2.039135475E0,-8.236072218E-1,-6.283909106E-1,2.287198609E0
5.051983000E0,-2.643382647E0,-9.768545580E-1,-2.218503785E-1,2.826824055E0
5.061998000E0,-2.600339539E0,-1.217838196E0,-3.997049908E-1,2.899079107E0
5.072013000E0,-2.196961912E0,-1.407868611E0,-6.620287728E-1,2.692028559E0
5.082029000E0,-1.482826554E0,-1.320800647E0,-8.267613561E-1,2.151005178E0
5.092044000E0,-5.001240126E-1,-9.465519476E-1,-9.143924077E-1,1.407905570E0
5.102059000E0,7.716922060E-1,-6.408694535E-1,-1.037689136E0,1.443267564E0
5.112073375E0,2.136523483E0,-2.889126796E-1,-8.962834346E-1,2.334850557E0
5.122089375E0,3.406662391E0,-1.447156638E-1,-4.896388221E-1,3.444711519E0
5.132104375E0,4.395033625E0,-3.660596734E-1,-1.258868985E-1,4.412048023E0
5.142119375E0,5.156524413E0,-6.615697664E-1,4.106253970E-1,5.214981476E0
5.152134375E0,5.114384699E0,-1.430578027E0,7.929666424E-1,5.369569856E0
5.162150375E0,4.191004683E0,-2.542661726E0,4.975372410E-1,4.927189078E0
5.172165375E0,3.140076135E0,-3.330001593E0,4.243805332E-1,4.596638727E0
5.182180375E0,1.994367438E0,-3.425659118E0,5.165805991E-1,3.997436351E0
5.192196375E0,7.238241944E-1,-3.100043465E0,2.408434506E-1,3.192521969E0
5.202211375E0,-2.951918583E-1,-2.744331610E0,3.304493992E-1,2.779872483E0
5.212226375E0,-5.186147723E-1,-2.501241805E0,7.096389954E-1,2.651180747E0
5.222241375E0,-5.465559481E-1,-2.311861015E0,1.073787214E0,2.606998991E0
5.232257375E0,-7.426440427E-1,-1.443306246E0,9.499361698E-1,1.880699822E0
5.242272375E0,-1.052094921E0,-3.385760057E-1,3.687931006E-1,1.165137668E0
5.252287375E0,-1.045640180E0,4.186471921E-1,1.033530450E-1,1.131066182E0
5.262302375E0,-5.666885329E-1,8.629367638E-1,5.742760992E-1,1.181350409E0
5.272318375E0,-7.637837738E-2,1.107987725E0,1.250699548E0,1.672638578E0
5.282333375E0,1.005737903E-1,1.130150426E0,1.783795753E0,2.114067729E0
5.292348375E0,-1.015613119E-1,9.831800759E-1,1.953226428E0,2.189075431E0
5.302363375E0,-3.799056608E-1,8.189645326E-1,1.980601923E0,2.176652290E0
5.312379375E0,-5.876777713E-1,7.382138997E-1,1.990012139E0,2.202378995E0
5.322394375E0,-6.492868128E-1,7.701502222E-1,1.931102757E0,2.178040998E0
5.332409375E0,-7.538467231E-1,7.199232244E-1,1.977059533E0,2.235025443E0
5.342425375E0,-9.834667356E-1,4.236091393E-1,2.182390797E0,2.430942433E0
5.352440375E0,-7.809448401E-1,3.466229439E-3,2.388162794E0,2.512609876E0
5.362455375E0,-7.635542706E-1,-3.272230518E-1,2.918988234E0,3.034894126E0
5.372470375E0,-1.152883231E0,-7.244735277E-1,3.166469297E0,3.446814391E0
5.382486375E0,-1.193846997E0,-8.998174918E-1,3.024693906E0,3.373976199E0
5.392501375E0,-8.929290332E-1,-9.983892685E-1,2.774109140E0,3.080549449E0
5.402516375E0,-6.816537827E-1,-1.052376026E0,2.707909011E0,2.984110988E0
5.412531375E0,-1.467951676E0,-1.191135131E0,2.458528479E0,3.101297681E0
5.422547375E0,-2.336997026E0,-7.349154854E-1,2.759693999E0,3.690198753E0
5.432562375E0,-3.033667043E0,-2.320730656E-1,2.902383018E0,4.204856813E0
5.442577375E0,-3.353422323E0,4.527119011E-1,2.745042339E0,4.357252206E0
5.452593375E0,-3.034181305E0,1.336407450E0,2.309227137E0,4.040392436E0
5.462608375E0,-2.307204146E0,2.006375572E0,1.620115230E0,3.460275606E0
5.472623375E0,-1.206300908E0,2.366550608E0,5.470918089E-1,2.712016428E0
5.482638375E0,1.238580608E-1,2.182407169E0,-5.607187450E-1,2.256689474E0
5.492654375E0,1.156206204E0,1.473142834E0,-1.108015791E0,2.175927753E0
5.502669375E0,1.315927431E0,6.754229897E-1,-1.223487775E0,1.919579005E0
5.512684375E0,1.037062826E0,4.256012857E-2,-1.418960195E0,1.758055375E0
5.522699375E0,9.249809843E-1,-3.333778310E-1,-2.001934319E0,2.230352353E0
5.532715375E0,8.509703638E-1,-6.436240768E-1,-3.185215763E0,3.359166856E0
5.542730375E0,1.218765856E0,-7.169072306E-1,-4.619251249E0,4.830820664E0
5.552745375E0,2.608906002E0,-3.397571433E-1,-5.511831057E0,6.107545092E0
5.562761375E0,3.765080631E0,1.519363904E-1,-5.358542790E0,6.550793666E0
5.572776375E0,4.271611182E0,2.504590505E-1,-4.801061064E0,6.431141358E0
5.582791375E0,4.850090260E0,7.695362645E-1,-3.865394293E0,6.249546754E0
5.592806375E0,5.269164006E0,1.580244529E0,-2.356833559E0,5.984640884E0
5.602822375E0,5.268436028E0,2.468442433E0,-7.952751231E-1,5.872145157E0
5.612837375E0,5.092638320E0,3.452715354E0,2.093325131E-1,6.156299901E0
5.622852375E0,3.984844723E0,3.847023511E0,1.644049931E-1,5.541263968E0
5.632867375E0,1.883363019E0,3.327718840E0,-8.218064256E-1,3.911027325E0
5.642883375E0,5.541525776E-1,3.086231173E0,-1.026760470E0,3.299415857E0
5.652898375E0,-4.015956515E-1,2.931406258E0,-1.371243407E0,3.261093405E0
5.662913375E0,-1.891458489E0,2.453009292E0,-1.603886576E0,3.488168854E0
5.672928375E0,-2.971988273E0,2.091653119E0,-1.630831715E0,3.983382878E0
5.682944375E0,-3.535878840E0,1.041691993E0,-1.712507962E0,4.064510414E0
5.692959375E0,-4.008106116E0,3.720267570E-1,-1.014235808E0,4.151143556E0
5.702974375E0,-4.021584240E0,-5.378806901E-1,-8.279036828E-1,4.140999873E0
5.712990375E0,-3.615567034E0,-1.315344025E0,-7.687334418E-1,3.923443129E0
5.723005375E0,-3.138934759E0,-1.672331159E0,-6.590466198E-1,3.617173671E0
5.733020375E0,-2.395148755E0,-2.084178039E0,-2.471371742E-1,3.184589838E0
5.743035375E0,-1.427758061E0,-2.433336335E0,1.149118940E-1,2.823618874E0
5.753051375E0,-7.155499457E-1,-2.618157467E0,1.784603839E-1,2.720038300E0
5.763066375E0,-1.093628315E-1,-2.853737692E0,3.832263677E-1,2.881430460E0
5.773081375E0,1.769508886E-1,-2.895020789E0,5.540507995E-1,2.952867974E0
5.783096375E0,3.160564048E-1,-2.782819737E0,4.063301785E-1,2.830032077E0
5.793112375E0,6.002203047E-1,-2.499871802E0,3.954881251E-1,2.601160183E0
5.803127375E0,9.042240266E-1,-2.307827606E0,8.431733210E-1,2.618134946E0
5.813142375E0,9.693175701E-1,-2.312135834E0,1.243022153E0,2.798330349E0
5.823158375E0,7.057504508E-1,-2.499077750E0,1.346570495E0,2.925188097E0
5.833173375E0,2.237389561E-1,-2.662465913E0,1.418013092E0,3.024821480E0
5.843188375E0,-2.691163097E-1,-2.570856416E0,1.534059126E0,3.005838269E0
5.853203375E0,-7.391751089E-1,-2.348034230E0,1.861133659E0,3.086010869E0
5.863219375E0,-1.377020309E0,-2.256145236E0,2.173255545E0,3.421902384E0
5.873234375E0,-2.170240867E0,-2.272085330E0,2.377260222E0,3.940010575E0
5.883249375E0,-2.770143266E0,-2.387668996E0,2.537527871E0,4.451258771E0
5.893264375E0,-3.265877226E0,-2.990248543E0,2.492039165E0,5.081121884E0
5.903280375E0,-3.527014754E0,-2.848279901E0,2.344175506E0,5.103693787E0
5.913295375E0,-3.082684836E0,-1.717520195E0,1.337005620E0,3.773646174E0
5.923310375E0,-2.106950897E0,3.632664585E-1,-8.549155533E-1,2.302625720E0
5.933326375E0,-1.517195026E0,1.444152923E0,-2.747100266E0,3.454564847E0
5.943341375E0,-1.025411445E0,1.259471540E0,-3.364874972E0,3.736324500E0
5.953356375E0,-1.438923027E-1,1.543052144E0,-3.352879994E0,3.693713466E0
5.963371375E0,1.385375542E0,3.898407673E0,-2.841114138E0,5.018842229E0
5.973387375E0,2.681375516E0,5.267458373E0,-1.278496041E0,6.047350205E0
5.983402375E0,3.618004446E0,4.334591249E0,1.179109821E0,5.767923148E0
5.993417375E0,3.877831321E0,3.433630042E0,3.420720559E0,6.207150728E0
6.003432375E0,2.435138155E0,2.287824281E0,3.496420952E0,4.836217246E0
6.013448375E0,5.888341678E-1,1.069569764E0,2.847796336E0,3.098491428E0
6.023463375E0,-5.377889254E-1,4.117422152E-1,2.308611717E0,2.405917006E0
6.033478375E0,-4.679453231E-1,7.805787313E-1,1.161122470E0,1.475290266E0
6.043494375E0,4.026562633E-1,1.757799910E0,1.189580210E-1,1.807247520E0
6.053509375E0,1.479401840E0,2.309298765E0,-7.708173895E-1,2.848797999E0
6.063524375E0,2.784190032E0,3.267046961E0,-2.259106851E0,4.850657043E0
6.073539375E0,4.249204067E0,4.693923116E0,-1.921865180E0,6.616813069E0
6.083555375E0,3.580031166E0,4.457642394E0,-4.410776961E-1,5.734260929E0
6.093570375E0,1.258994408E0,2.335484936E0,9.203173913E-2,2.654811979E0
6.103585375E0,4.389862932E-2,1.108725643E0,-6.308233523E-1,1.276376803E0
6.113601125E0,-9.561890361E-1,1.233160239E0,-1.300743527E0,2.031481079E0
6.123617125E0,-2.049639413E0,1.112288936E0,-1.708255867E0,2.890734597E0
6.133632125E0,-2.867057065E0,1.254056434E0,-1.835163835E0,3.627740351E0
6.143647125E0,-2.709954659E0,1.588710127E0,-1.715545006E0,3.579238577E0
6.153662125E0,-1.858752380E0,1.355323777E0,-1.176966012E0,2.584010825E0
6.163678125E0,-1.223946124E0,6.521346992E-1,-1.011254897E0,1.716379983E0
6.173693125E0,-3.303476577E-1,1.975692308E-1,-1.331992217E0,1.386494300E0
6.183708125E0,6.141057973E-1,-9.472489357E-2,-1.557950850E0,1.677292337E0
6.193724125E0,1.655446008E0,-2.203347802E-1,-1.322295049E0,2.130143914E0
6.203739125E0,2.939373089E0,-1.888001615E-1,-1.160281567E0,3.165724715E0
6.213754125E0,3.856569090E0,-4.378757608E-1,-1.125281596E0,4.041177922E0
6.223769125E0,4.838481490E0,-5.949267107E-1,-6.397074656E-1,4.916712983E0
6.233785125E0,5.573258981E0,-1.010979493E0,1.928986211E-1,5.667495486E0
6.243800125E0,5.400026447E0,-2.014741184E0,6.351304114E-1,5.798522079E0
6.253815125E0,4.759839655E0,-2.550902792E0,7.365759484E-1,5.450295655E0
6.263830125E0,3.564152467E0,-3.270163527E0,4.107562284E-1,4.854469382E0
6.273846125E0,2.286968102E0,-3.782947383E0,5.130522430E-1,4.450183885E0
6.283861125E0,1.046743403E0,-3.771712543E0,5.937414801E-1,3.959042334E0
6.293876125E0,9.481439251E-2,-3.207698892E0,5.444566150E-1,3.254958518E0
6.303892125E0,-3.845300044E-1,-2.501975046E0,5.226669659E-1,2.584748191E0
6.313907125E0,-3.442863965E-1,-1.855887537E0,8.319582152E-1,2.062766624E0
6.323922125E0,-6.016086895E-2,-1.343035269E0,1.054111626E0,1.708365998E0
6.333937125E0,7.494895242E-2,-7.052332646E-1,7.790561163E-1,1.053517791E0
6.343953125E0,5.515481181E-2,1.374586844E-1,3.673162401E-1,3.960532331E-1
6.353968125E0,1.277559792E-1,7.748443669E-1,2.323750743E-1,8.189649311E-1
6.363983125E0,2.528779523E-1,9.337342662E-1,3.526058149E-1,1.029629933E0
6.373998125E0,3.940509160E-1,6.336738700E-1,7.795972762E-1,1.079161995E0
6.384014125E0,4.312721347E-1,2.901563823E-1,1.366811948E0,1.462313674E0
6.394029125E0,3.364443301E-1,4.026451170E-2,1.799343500E0,1.830970521E0
6.404044125E0,2.947223634E-1,-7.560800672E-2,2.051541366E0,2.073981634E0
6.414060125E0,1.290374148E-1,-1.495320153E-1,2.119330768E0,2.128514361E0
6.424075125E0,-1.114221295E-1,-2.336974221E-1,1.893101556E0,1.910723130E0
6.434090125E0,-2.153787533E-1,-1.063608527E-1,1.902795947E0,1.917898083E0
6.444105125E0,-4.406151082E-1,9.222403944E-2,2.195119016E0,2.240802187E0
6.454121125E0,-3.757604966E-1,3.886702716E-2,2.404428871E0,2.433923744E0
6.464136125E0,-1.782691799E-2,-3.905384570E-1,2.830183646E0,2.857057499E0
6.474151125E0,-3.042344311E-1,-8.808251506E-1,3.389244705E0,3.515023642E0
6.484166125E0,-6.481623933E-1,-1.295838298E0,3.260418265E0,3.567861915E0
6.494182125E0,-4.910389744E-1,-1.495826522E0,3.197010766E0,3.563634956E0
6.504197125E0,-8.557397184E-1,-1.618346155E0,3.271026284E0,3.748459376E0
6.514212125E0,-2.230030986E0,-1.465299379E0,3.302146335E0,4.245504786E0
6.524228125E0,-3.517458649E0,-6.664159387E-1,3.701811419E0,5.149760512E0
6.534243125E0,-4.538298887E0,-1.558224499E-2,3.140793296E0,5.519146866E0
6.544258125E0,-4.725175022E0,5.662905568E-1,2.505271998E0,5.378136459E0
6.554273125E0,-3.691294032E0,1.237429292E0,1.763661743E0,4.274036222E0
6.564289125E0,-2.337100521E0,1.701270198E0,8.342593870E-1,3.008711993E0
6.574304125E0,-7.132019962E-1,2.481958857E0,-3.986011827E-1,2.612979097E0
6.584319125E0,1.004574819E0,2.798456361E0,-1.392413836E0,3.283191262E0
6.594334125E0,2.056291498E0,2.295640839E0,-1.729163171E0,3.533879859E0
6.604350125E0,2.073401036E0,1.175970962E0,-1.528218635E0,2.831492849E0
6.614365125E0,1.668613791E0,1.509207290E-1,-1.078765387E0,1.992682567E0
6.624380125E0,1.328330252E0,-5.143626040E-1,-9.295958993E-1,1.700934650E0
6.634396125E0,1.030590835E0,-9.321069860E-1,-1.724966040E0,2.215050505E0
6.644411125E0,8.570168234E-1,-1.079025881E0,-3.275887659E0,3.553901327E0
6.654426125E0,1.598380399E0,-9.022680598E-1,-4.639351930E0,4.989237805E0
6.664441125E0,2.787606560E0,-4.777789146E-1,-5.042689065E0,5.781672425E0
6.674457125E0,3.518286323E0,-1.536507940E-1,-4.778685816E0,5.936142295E0
6.684472125E0,4.144008564E0,5.396722770E-1,-4.361308347E0,6.040286719E0
6.694487125E0,4.806570311E0,1.621420037E0,-3.324744362E0,6.065150135E0
6.704502125E0,5.418795424E0,3.204458365E0,-1.668139290E0,6.512648152E0
6.714518125E0,5.575134183E0,4.836029168E0,-2.403917532E-1,7.384245897E0
6.724533125E0,4.849300593E0,5.702579511E0,4.360868052E-2,7.485788605E0
6.734548125E0,3.221826349E0,5.210415861E0,-7.411486173E-1,6.170729272E0
6.744564125E0,1.745483919E0,4.183822548E0,-1.382917957E0,4.739572481E0
6.754579125E0,3.609285224E-1,3.463468968E0,-1.425250629E0,3.762608942E0
6.764594125E0,-8.812351866E-1,2.751619579E0,-1.575178940E0,3.290771103E0
6.774609125E0,-1.906634352E0,2.294898827E0,-1.824672761E0,3.497319812E0
6.784625125E0,-3.040908235E0,1.215380611E0,-1.662042983E0,3.672418794E0
6.794640125E0,-3.939422382E0,1.698949438E-1,-7.062115037E-1,4.005826717E0
6.804655125E0,-3.974425569E0,-5.978982657E-1,-2.833217181E-2,4.019246652E0
6.814670125E0,-3.969182956E0,-1.201303439E0,-4.386079053E-1,4.170122322E0
6.824686125E0,-3.805320292E0,-1.863765491E0,-4.205867136E-1,4.258048557E0
6.834701125E0,-3.357197578E0,-2.575328366E0,-7.281186819E-1,4.293395927E0
6.844716125E0,-2.229118236E0,-2.410833326E0,-6.293510234E-1,3.343227205E0
6.854732125E0,-1.335686196E0,-2.327777136E0,4.908861794E-2,2.684215658E0
6.864747125E0,-3.894806592E-1,-2.615725025E0,4.490170455E-1,2.682411023E0
6.874762125E0,2.742037162E-1,-2.685337881E0,5.417211413E-1,2.753123501E0
6.884777125E0,6.426940772E-1,-2.614177852E0,2.843441038E-1,2.706997061E0
6.894793125E0,1.081307391E0,-2.393401022E0,3.669953741E-2,2.626583519E0
6.904808125E0,1.506663605E0,-2.200772104E0,3.502059714E-1,2.689995780E0
6.914823125E0,1.949943655E0,-2.090007713E0,1.024558628E0,3.036467171E0
6.924838125E0,1.988639067E0,-2.207026870E0,1.488184211E0,3.322701490E0
6.934854125E0,1.354406641E0,-2.675714534E0,1.511152074E0,3.358190913E0
6.944869125E0,6.547581987E-1,-3.004285954E0,1.179192851E0,3.293165372E0
6.954884125E0,1.653228049E-1,-2.921457805E0,1.223939253E0,3.171793599E0
6.964900125E0,-2.861208899E-1,-2.654020194E0,1.588908348E0,3.106496112E0
6.974915125E0,-9.160438076E-1,-2.649013808E0,1.947065363E0,3.412839572E0
6.984930125E0,-1.540181746E0,-2.708056653E0,2.320670869E0,3.884745027E0
6.994945125E0,-2.114443227E0,-2.846913407E0,2.692262739E0,4.452422348E0
7.004961125E0,-2.462991367E0,-2.926817948E0,3.069490010E0,4.904524308E0
7.014976125E0,-2.659797828E0,-2.953028092E0,3.404201006E0,5.232923073E0
7.024991125E0,-2.774469621E0,-3.034007936E0,3.262064549E0,5.248233127E0
7.035007125E0,-2.471392938E0,-1.455993535E0,1.575724046E0,3.272706296E0
7.045022125E0,-2.259680462E0,3.239532888E-1,-1.360942951E0,2.657680802E0
7.055037125E0,-1.315814433E0,1.807640406E0,-4.173037359E0,4.734255196E0
7.065052125E0,-1.089856678E-1,2.732790960E0,-5.217614368E0,5.890969700E0
7.075068125E0,8.355739141E-1,2.642738577E0,-4.883674035E0,5.615382715E0
7.085083125E0,2.869494477E0,4.569433556E0,-2.401031638E0,5.905817006E0
7.095098125E0,3.885791135E0,4.866145252E0,1.762843133E0,6.471967110E0
7.105113125E0,4.203333537E0,4.189622986E0,5.139478025E0,7.850808109E0
7.115128875E0,3.147315280E0,2.656941463E0,5.838706784E0,7.145308134E0
7.125143875E0,9.392680711E-1,7.749513710E-1,5.162863380E0,5.304519998E0
7.135158875E0,-9.347284390E-1,6.041226268E-2,4.442533189E0,4.540205726E0
7.145174875E0,-2.307164531E0,1.521392888E-1,3.271250525E0,4.005899965E0
7.155189875E0,-2.992504106E0,7.580365455E-1,1.837998565E0,3.592762024E0
7.165204875E0,-2.485498177E0,1.802421767E0,9.737719059E-2,3.071792267E0
7.175219875E0,-6.381386577E-1,3.080899097E0,-1.899774399E0,3.675364330E0
7.185235875E0,2.024496824E0,4.419263025E0,-3.700349615E0,6.109096524E0
7.195250875E0,4.919780007E0,6.556039692E0,-3.674844060E0,8.982781898E0
7.205265875E0,6.185794582E0,8.331585317E0,-1.442350227E0,1.047662840E1
7.215280875E0,4.123880401E0,5.381483172E0,-3.883358109E-1,6.790990752E0
7.225296875E0,2.265358694E0,1.278073288E0,-4.972226242E-1,2.648122293E0
7.235311875E0,1.211052867E0,-5.808980709E-1,-9.263194120E-1,1.631612475E0
7.245326875E0,1.974113925E-1,-1.081853594E0,-1.516391180E0,1.873184632E0
7.255342875E0,-1.156637509E0,-1.766735040E0,-1.988891813E0,2.900836719E0
7.265357875E0,-2.338258709E0,-1.741523015E0,-2.247517669E0,3.681262267E0
7.275372875E0,-2.732392180E0,-1.339228147E0,-2.526943241E0,3.955368655E0
7.285387875E0,-2.225742930E0,-9.346452624E-1,-1.898830658E0,3.071327275E0
7.295403875E0,-1.112851658E0,1.510978997E-2,-1.093437513E0,1.560215598E0
7.305418875E0,-1.608885872E-1,8.284200650E-1,-1.134857873E0,1.414237368E0
7.315433875E0,8.457009262E-1,1.396025076E0,-1.261272337E0,2.062741859E0
7.325449875E0,2.107694078E0,1.734894027E0,-1.312849457E0,3.029159175E0
7.335464875E0,3.681802539E0,1.901913310E0,-1.126675426E0,4.294454761E0
7.345479875E0,4.939188085E0,1.598242843E0,-4.352282877E-1,5.209547273E0
7.355494875E0,5.260625317E0,5.982444209E-1,4.880437016E-2,5.294757500E0
7.365510875E0,5.253501070E0,-6.843551964E-1,6.400454347E-1,5.336410187E0
7.375525875E0,4.817361055E0,-1.685331858E0,1.183353510E0,5.239049201E0
7.385540875E0,3.541276990E0,-2.361806177E0,7.213674867E-1,4.317307284E0
7.395555875E0,2.065018613E0,-3.028546636E0,4.502706885E-2,3.665845610E0
7.405571875E0,7.915747858E-1,-3.239283797E0,-2.621469037E-1,3.344887316E0
7.415586875E0,-1.387724624E-1,-3.033406842E0,-4.418447046E-1,3.068556926E0
7.425601875E0,-6.090843547E-1,-2.747585585E0,-5.486429290E-1,2.867266880E0
7.435617875E0,-2.187975472E-1,-2.226264794E0,-1.474246788E-1,2.241843290E0
7.445632875E0,3.231198413E-1,-1.656627876E0,4.878026502E-1,1.756921677E0
7.455647875E0,5.249109811E-1,-1.077226108E0,6.167679615E-1,1.347720425E0
7.465662875E0,7.975721287E-1,-1.626800644E-1,4.327935071E-1,9.218982176E-1
7.475678875E0,8.047136255E-1,5.818996990E-1,2.734310067E-1,1.030017376E0
7.485693875E0,1.032086041E0,8.475550783E-1,3.086148727E-1,1.370691193E0
7.495708875E0,1.384829412E0,5.206471914E-1,8.491914216E-1,1.705858162E0
7.505724875E0,1.451416919E0,-2.411040902E-1,1.546088895E0,2.134275785E0
7.515739875E0,1.134879069E0,-9.745349675E-1,1.888637938E0,2.409278350E0
7.525754875E0,6.663604633E-1,-1.492017061E0,2.031792541E0,2.607361139E0
7.535769875E0,3.174439491E-1,-1.687012348E0,2.075910953E0,2.693731168E0
7.545785875E0,-4.931475900E-2,-1.634827117E0,1.882011727E0,2.493403255E0
7.555800875E0,-3.487552042E-1,-1.363180096E0,1.541488745E0,2.087121874E0
7.565815875E0,-4.952455710E-1,-1.021786317E0,1.318707051E0,1.740202212E0
7.575830875E0,-3.925116730E-1,-6.310087091E-1,1.589094582E0,1.754268792E0
7.585846875E0,-9.466664068E-2,-4.054827708E-1,2.204428660E0,2.243408961E0
7.595861875E0,3.029737714E-1,-3.732190043E-1,2.896045221E0,2.935670869E0
7.605876875E0,5.393658098E-1,-3.735733455E-1,3.738139877E0,3.795281579E0
7.615892875E0,-4.075876223E-1,-5.233474356E-1,3.948480012E0,4.003812509E0
7.625907875E0,-7.719369851E-1,-8.348315370E-1,2.978236316E0,3.187902438E0
7.635922875E0,-5.776109856E-1,-1.164404585E0,2.043702735E0,2.422022576E0
7.645937875E0,-1.294040352E-1,-7.819265145E-1,2.335871437E0,2.466667762E0
7.655953875E0,-7.649412301E-1,-4.006944859E-1,3.200288715E0,3.314745694E0
7.665968875E0,-2.162782013E0,5.886216581E-2,3.664261477E0,4.255338172E0
7.675983875E0,-3.201381268E0,4.139811140E-1,3.587889824E0,4.826300423E0
7.685999875E0,-3.124276374E0,1.130384315E0,3.362905922E0,4.727367957E0
7.696014875E0,-2.394573096E0,2.075814182E0,3.296531838E0,4.572757045E0
7.706029875E0,-1.469177837E0,2.911790019E0,2.942451940E0,4.392610619E0
7.716044875E0,-5.298592969E-1,3.444479551E0,1.897276176E0,3.967977714E0
7.726060875E0,3.130930724E-1,3.561909767E0,7.017620650E-1,3.643857634E0
7.736075875E0,9.046584747E-1,3.021314215E0,1.431725836E-1,3.157094381E0
7.746090875E0,6.991367383E-1,1.884011475E0,4.504154071E-1,2.059409006E0
7.756105875E0,1.005514247E-1,7.205652487E-1,4.961961821E-1,8.806449442E-1
7.766121875E0,-1.993683460E-1,-9.228309631E-2,2.523307443E-2,2.211348351E-1
7.776136875E0,-4.965027589E-1,-7.871252739E-1,-6.194762456E-1,1.117958857E0
7.786151875E0,-7.224145769E-1,-1.391707492E0,-1.527729515E0,2.189221331E0
7.796167875E0,-1.173196531E0,-1.746788433E0,-2.923304648E0,3.601856465E0
7.806182875E0,-1.337356891E0,-1.735039038E0,-4.472435558E0,4.980116840E0
7.816197875E0,2.870169391E-1,-1.112774255E0,-5.768513299E0,5.881869681E0
7.826212875E0,1.965611854E0,-2.056553453E-1,-6.432328981E0,6.729099509E0
7.836228875E0,3.278882895E0,7.161956245E-1,-6.464768164E0,7.284039856E0
7.846243875E0,4.791708150E0,1.507204034E0,-5.938440403E0,7.777994948E0
7.856258875E0,5.880377551E0,1.620894957E0,-4.540084627E0,7.603848304E0
7.866274875E0,6.481611069E0,2.075908906E0,-3.034628910E0,7.451822090E0
7.876289875E0,6.709178855E0,3.832606031E0,-2.079911910E0,8.001748775E0
7.886304875E0,5.541257170E0,4.468167967E0,-1.027846956E0,7.192115500E0
7.896319875E0,3.756475868E0,3.934986684E0,-1.743487680E-1,5.442943013E0
7.906335875E0,2.382612617E0,2.832186025E0,-3.465657143E-1,3.717287769E0
7.916350875E0,1.157968554E0,2.523371177E0,-8.018182305E-1,2.889845281E0
7.926365875E0,-1.006875186E-1,2.523556534E0,-1.009815386E0,2.719963726E0
7.936380875E0,-1.324774414E0,2.747899581E0,-1.603036391E0,3.446114482E0
7.946396875E0,-3.369143147E0,2.438874233E0,-1.530523900E0,4.431899873E0
7.956411875E0,-4.108534384E0,8.977423149E-1,-8.938170791E-1,4.299407519E0
7.966426875E0,-4.814614325E0,-3.692405587E-1,-1.219648494E0,4.980400801E0
7.976442875E0,-4.592611042E0,-1.018910657E0,-1.460208647E0,4.925694306E0
7.986457875E0,-4.156941143E0,-1.381533921E0,-1.446473683E0,4.613142287E0
7.996472875E0,-3.714534083E0,-2.118404131E0,-6.655557402E-1,4.327627983E0
8.006487875E0,-2.621501782E0,-2.601107571E0,-3.510328408E-1,3.709616724E0
8.016503875E0,-1.759818222E0,-2.472779313E0,-1.598336399E-1,3.039267099E0
8.026518875E0,-9.978557101E-1,-2.599883164E0,4.422553984E-1,2.819698268E0
8.036533875E0,-2.696500874E-1,-2.693405285E0,5.113762848E-1,2.754750243E0
8.046549875E0,-1.995202457E-2,-2.802623087E0,4.115352237E-1,2.832746987E0
8.056564875E0,5.691063018E-2,-2.845344014E0,3.340794969E-1,2.865454674E0
8.066579875E0,2.072617216E-1,-2.414787798E0,3.548711725E-1,2.449508334E0
8.076594875E0,5.755885798E-1,-1.842873974E0,7.921820191E-1,2.086873031E0
8.086610875E0,9.289285858E-1,-1.730051948E0,1.403507173E0,2.413673641E0
8.096625875E0,6.725295682E-1,-2.346209314E0,1.622218766E0,2.930629265E0
8.106640875E0,3.446211861E-3,-2.835899591E0,1.584053990E0,3.248317320E0
8.116655750E0,-6.133065560E-1,-2.912643712E0,1.388617823E0,3.284493535E0
8.126671750E0,-9.431368082E-1,-2.840791957E0,1.411921463E0,3.309551057E0
8.136686750E0,-1.307796877E0,-2.695821354E0,1.744939982E0,3.467362252E0
8.146701750E0,-1.716388759E0,-2.493000739E0,2.112533526E0,3.691048761E0
8.156717750E0,-2.277795137E0,-2.536875907E0,2.269448090E0,4.095666574E0
8.166732750E0,-2.795841779E0,-2.883881258E0,2.475428102E0,4.718182558E0
8.176747750E0,-3.133596835E0,-3.475294377E0,2.672473422E0,5.388804536E0
8.186762750E0,-2.997684447E0,-3.255063677E0,2.739438075E0,5.204428168E0
8.196778750E0,-2.191848960E0,-1.297759109E0,1.301318893E0,2.860386588E0
8.206793750E0,-1.784656171E0,1.278584919E0,-1.722990850E0,2.790783853E0
8.216808750E0,-9.361813990E-1,2.156039150E0,-4.090998584E0,4.718178657E0
8.226824750E0,4.529698364E-1,1.778750483E0,-4.945880224E0,5.275496767E0
8.236839750E0,9.858923800E-1,2.103628802E0,-4.652342981E0,5.200147415E0
8.246854750E0,2.255414480E0,3.741475421E0,-3.048880913E0,5.327401583E0
8.256869750E0,3.801182510E0,5.061759759E0,5.794590712E-3,6.330121160E0
8.266885750E0,4.319386734E0,4.330796406E0,3.052361176E0,6.835920422E0
8.276900750E0,3.086535228E0,3.082987722E0,4.686522295E0,6.402734122E0
8.286915750E0,1.091514656E0,2.338390417E0,3.945979450E0,4.714894252E0
8.296931750E0,-7.216238871E-1,1.828826623E0,2.548330017E0,3.218591886E0
8.306946750E0,-2.144387842E0,1.455279005E0,1.146376961E0,2.833798923E0
8.316961750E0,-1.879252426E0,2.049176606E0,-5.090110861E-2,2.780882120E0
8.326976750E0,-5.879900857E-1,2.608945178E0,-1.106628905E0,2.894296947E0
8.336992750E0,6.385565143E-1,2.562810647E0,-2.009485706E0,3.318702403E0
8.347007750E0,2.392908686E0,2.987116190E0,-2.189330857E0,4.409313406E0
8.357022750E0,3.169058152E0,3.169627086E0,-6.334861743E-1,4.526673190E0
8.367038750E0,1.256275452E0,2.008372396E0,-2.086274485E-1,2.378090223E0
8.377053750E0,-1.600458024E-1,6.257508928E-1,-9.768978274E-1,1.171114087E0
8.387068750E0,-7.687275946E-1,3.267786634E-1,-1.472671548E0,1.693070553E0
8.397083750E0,-1.588818886E0,7.200594646E-1,-1.943018067E0,2.611158803E0
8.407099750E0,-2.205557903E0,6.996936125E-1,-2.017451953E0,3.069880975E0
8.417114750E0,-2.172730758E0,5.904471588E-1,-1.718780855E0,2.832594998E0
8.427129750E0,-1.442927054E0,8.519597858E-1,-1.234679346E0,2.081419479E0
8.437145750E0,-8.011925054E-1,7.362118131E-1,-9.584664535E-1,1.450025933E0
8.447160750E0,-3.324018576E-1,3.601352745E-1,-8.392859459E-1,9.718998456E-1
8.457175750E0,2.252687339E-1,1.680963403E-1,-7.596958391E-1,8.100247836E-1
8.467190750E0,9.520225295E-1,-5.577074289E-3,-9.590883049E-1,1.351380175E0
8.477206750E0,2.002622537E0,9.415186644E-3,-1.101883085E0,2.285767268E0
8.487221750E0,2.991999784E0,-1.419218642E-1,-1.346129615E0,3.283941148E0
8.497236750E0,3.771345630E0,-3.315371275E-3,-1.703972197E0,4.138427249E0
8.507252750E0,4.098656390E0,-2.157189882E-1,-1.975338113E0,4.554940125E0
8.517267750E0,4.520710462E0,-9.891851664E-2,-1.605531982E0,4.798368567E0
8.527282750E0,4.394614964E0,-7.506006414E-1,-1.043723316E0,4.578799009E0
8.537297750E0,4.059237093E0,-1.512233225E0,-2.276040387E-1,4.337748114E0
8.547313750E0,2.968026200E0,-2.131571476E0,2.114891124E-1,3.660260117E0
8.557328750E0,1.702855817E0,-2.408972157E0,3.105364139E-1,2.966361012E0
8.567343750E0,7.686471223E-1,-2.444507441E0,3.335288353E-1,2.584120065E0
8.577359750E0,4.044921794E-1,-2.227738878E0,2.187314737E-1,2.274703912E0
8.587374750E0,4.169092900E-1,-1.727555187E0,2.425517146E-1,1.793625271E0
8.597389750E0,5.585838535E-1,-1.246773727E0,3.923948018E-1,1.421419828E0
8.607404750E0,5.361190337E-1,-7.387419033E-1,3.194121949E-1,9.670508612E-1
8.617420750E0,3.566676929E-1,-4.431201285E-1,-3.879627585E-2,5.701512453E-1
8.627435750E0,3.545446420E-1,-2.279858619E-1,-1.692665143E-1,4.542362923E-1
8.637450750E0,2.230256323E-1,4.418331563E-2,-2.429765148E-1,3.327614533E-1
8.647466750E0,1.730989987E-1,-1.138213152E-1,-1.077079050E-1,2.334942140E-1
8.657481750E0,3.177580176E-1,-3.565023994E-1,4.446094143E-1,6.524888121E-1
8.667496750E0,2.871611461E-1,-5.519350576E-1,1.038441088E0,1.210559261E0
8.677511750E0,1.998078373E-1,-5.858822376E-1,1.424728034E0,1.553393427E0
8.687527750E0,2.325532682E-2,-5.111729479E-1,1.599900236E0,1.679737884E0
8.697542750E0,-2.604825669E-1,-4.310561532E-1,1.685086859E0,1.758743386E0
8.707557750E0,-5.581347142E-1,-2.864258587E-1,1.656575982E0,1.771383108E0
8.717573750E0,-8.248350640E-1,-1.936188519E-1,1.514741534E0,1.735592999E0
8.727588750E0,-9.623085858E-1,-2.857931900E-1,1.413175252E0,1.733430083E0
8.737603750E0,-8.644009797E-1,-2.695309138E-1,1.747513049E0,1.968155945E0
8.747618750E0,-7.760165875E-1,-1.684050733E-1,2.277754498E0,2.412203882E0
8.757634750E0,-6.001147990E-1,-5.243519872E-1,2.600036068E0,2.719424633E0
8.767649750E0,-4.692812292E-1,-1.100117957E0,2.861045250E0,3.100977961E0
8.777664750E0,-4.447840268E-1,-1.452714416E0,2.985365533E0,3.349719298E0
8.787680750E0,-7.342098726E-1,-1.543491855E0,3.165701265E0,3.597651421E0
8.797695750E0,-9.430145283E-1,-1.549926131E0,3.165995088E0,3.648982366E0
8.807710750E0,-1.237872803E0,-1.733397725E0,2.779918641E0,3.502134263E0
8.817725750E0,-1.619093722E0,-1.535815630E0,2.560334643E0,3.396396269E0
8.827741750E0,-2.152042139E0,-2.840407795E-1,3.111498746E0,3.793862014E0
8.837756750E0,-2.909097961E0,7.163388813E-1,2.980010068E0,4.225689570E0
8.847771750E0,-3.331808968E0,1.203738220E0,2.499476823E0,4.335587744E0
8.857787750E0,-3.029475466E0,1.787368695E0,2.087192571E0,4.090083285E0
8.867802750E0,-2.474981375E0,2.193713930E0,1.424512711E0,3.600992929E0
8.877817750E0,-1.584304835E0,2.551084641E0,4.010994056E-1,3.029675789E0
8.887833750E0,-4.598624611E-1,2.356200451E0,-7.833853948E-1,2.525241914E0
8.897848750E0,5.591051693E-1,1.832181755E0,-1.346490973E0,2.341479557E0
8.907863750E0,9.615468398E-1,1.070625186E0,-1.239655327E0,1.899356718E0
8.917878750E0,6.260827222E-1,3.746603429E-1,-1.042411786E0,1.272388415E0
8.927894750E0,5.440283065E-1,1.250210720E-1,-1.345161609E0,1.456384846E0
8.937909750E0,2.717745636E-1,1.424557149E-2,-1.869298711E0,1.889005564E0
8.947924750E0,-4.206128068E-1,-1.575304216E-1,-2.975715873E0,3.009421194E0
8.957940750E0,-2.247889333E-1,-1.932995939E-1,-4.086261462E0,4.097002262E0
8.967955750E0,1.639254044E0,3.623256415E-1,-4.587709321E0,4.885233926E0
8.977970750E0,2.586036665E0,6.478024971E-1,-4.372188846E0,5.120866041E0
8.987985750E0,2.845869094E0,7.437921435E-1,-3.893962619E0,4.880076079E0
8.998001750E0,3.605003454E0,1.871000835E0,-3.408898659E0,5.302573347E0
9.008016750E0,3.825648137E0,2.306693246E0,-2.842098809E0,5.294708967E0
9.018031750E0,3.664565240E0,2.679874243E0,-1.985378659E0,4.955047202E0
9.028047750E0,3.334515059E0,3.085330117E0,-1.325221142E0,4.732278910E0
9.038062750E0,2.539898917E0,2.858351730E0,-1.177153269E0,4.000868773E0
9.048077750E0,1.371922268E0,2.487813674E0,-1.738791196E0,3.330883128E0
9.058092750E0,2.933075930E-1,2.390977351E0,-1.960649615E0,3.105953791E0
9.068108750E0,-3.160176670E-1,1.962364749E0,-1.716698077E0,2.626365333E0
9.078123750E0,-1.059394293E0,1.796196236E0,-1.545143108E0,2.595400626E0
9.088138750E0,-1.716194193E0,1.961045617E0,-1.771647871E0,3.151151948E0
9.098154750E0,-2.602824605E0,1.642700393E0,-1.492114710E0,3.420462953E0
9.108169750E0,-3.262930229E0,5.605830896E-1,-1.124921334E0,3.496629104E0
9.118185625E0,-3.276530853E0,-3.406125909E-1,-1.070979527E0,3.463909426E0
9.128200625E0,-3.270814322E0,-9.584814370E-1,-1.113769378E0,3.585721019E0
9.138216625E0,-2.853905507E0,-1.552230518E0,-9.954720926E-1,3.397817081E0
9.148231625E0,-2.053101257E0,-2.026454326E0,-4.484977397E-1,2.919399275E0
9.158246625E0,-1.202207857E0,-2.235239101E0,1.101335493E-1,2.540418660E0
9.168262625E0,-6.692744963E-1,-2.526087209E0,3.502493870E-1,2.636611381E0
9.178277625E0,-3.733858326E-1,-2.991061891E0,4.381575966E-1,3.045956384E0
9.188292625E0,-1.139963022E-1,-2.933827005E0,5.664421459E-1,2.990182730E0
9.198308625E0,-8.574771820E-2,-2.486183470E0,3.854649742E-1,2.517348638E0
9.208323625E0,-9.546186201E-2,-2.128723297E0,1.339782755E-1,2.135070496E0
9.218338625E0,1.271793981E-1,-1.627357884E0,3.740791297E-1,1.674635327E0
9.228353625E0,1.513845137E-1,-1.386284784E0,5.864790921E-1,1.512831947E0
9.238369625E0,-7.322447148E-2,-1.551288532E0,6.075198591E-1,1.667614557E0
9.248384625E0,-4.035095182E-1,-1.845831496E0,5.792801464E-1,1.976228562E0
9.258399625E0,-7.918813992E-1,-2.101571167E0,4.730526102E-1,2.295093961E0
9.268415625E0,-1.156279586E0,-2.302951612E0,5.501526801E-1,2.635002198E0
9.278430625E0,-1.370902806E0,-2.324548888E0,8.113994050E-1,2.818026088E0
9.288445625E0,-1.479773284E0,-2.222063570E0,1.054053007E0,2.870247938E0
9.298460625E0,-1.564006665E0,-2.120636598E0,1.363489999E0,2.966870641E0
9.308476625E0,-1.569725680E0,-2.158253490E0,1.659493597E0,3.142612900E0
9.318491625E0,-1.707680355E0,-1.984410506E0,2.047971056E0,3.323889694E0
9.328506625E0,-2.051475146E0,-2.148758782E0,2.437274874E0,3.842658375E0
9.338522625E0,-2.233131472E0,-2.321438169E0,2.786426300E0,4.259122312E0
9.348537625E0,-2.057365339E0,-1.274609397E0,2.510478652E0,3.487102567E0
9.358552625E0,-2.151275716E0,-2.751313770E-1,1.657577025E0,2.729697066E0
9.368567625E0,-2.020052063E0,5.946179777E-1,5.995338781E-1,2.189434116E0
9.378583625E0,-1.775112200E0,1.103906368E0,-6.456156385E-1,2.187796184E0
9.388598625E0,-1.609751479E0,1.007488121E0,-1.812860070E0,2.625413067E0
9.398613625E0,-2.709639933E-1,1.433951871E0,-2.256191429E0,2.687013066E0
9.408629625E0,1.346289390E0,1.708935898E0,-1.491548699E0,2.637740425E0
9.418644625E0,1.962584312E0,1.997225849E0,3.691977279E-1,2.824350410E0
9.428659625E0,1.630141159E0,1.721077641E0,2.127764354E0,3.185411997E0
9.438674625E0,8.496032848E-1,1.363040348E0,3.233739467E0,3.610647542E0
9.448690625E0,-8.908469859E-1,1.096959291E0,3.768138725E0,4.024400264E0
9.458705625E0,-2.905540807E0,6.272711688E-1,4.511763053E0,5.402929052E0
9.468720625E0,-4.264474363E0,1.915846056E-1,4.966700989E0,6.549088865E0
9.478736625E0,-4.329927802E0,-3.555107117E-2,4.125322909E0,5.980621018E0
9.488751625E0,-3.695522446E0,-1.126682442E-1,2.107441771E0,4.255689262E0
9.498766625E0,-2.480443551E0,6.149703813E-1,-5.202606539E-1,2.607960876E0
9.508782625E0,-7.570740207E-1,1.726919010E0,-3.897876745E0,4.329994626E0
9.518797625E0,2.058237159E0,3.504695347E0,-6.278205732E0,7.478976995E0
9.528812625E0,5.007516308E0,6.517549226E0,-5.285563692E0,9.771942030E0
9.538827625E0,6.500278305E0,8.167586120E0,-2.436665740E0,1.071916139E1
9.548843625E0,5.963181142E0,6.012970183E0,-5.618706465E-1,8.487110131E0
9.558858625E0,3.585312079E0,3.211756859E0,-6.584689879E-1,4.858335747E0
9.568873625E0,1.357473506E0,1.419213379E0,-1.080352687E0,2.241442139E0
9.578889625E0,4.618002101E-2,-9.011904180E-2,-1.015441577E0,1.020478139E0
9.588904625E0,-9.097952536E-1,-1.067563584E0,-8.582308515E-1,1.644378181E0
9.598919625E0,-1.797139100E0,-5.810220319E-1,-9.553753960E-1,2.116609953E0
9.608934625E0,-3.248237638E0,-3.748433608E-1,-1.567701666E0,3.626188607E0
9.618950625E0,-3.908889976E0,8.860402822E-2,-2.194585311E0,4.483690021E0
9.628965625E0,-3.328869572E0,6.267507666E-1,-2.186419090E0,4.031701575E0
9.638980625E0,-2.280808207E0,8.444946456E-1,-2.057283332E0,3.185541083E0
9.648996625E0,-1.007964157E0,6.187125993E-1,-2.010700758E0,2.332748285E0
9.659011625E0,7.804034610E-1,2.673697829E-1,-1.711226252E0,1.899687198E0
9.669026625E0,2.684325436E0,1.218758547E-1,-1.248605075E0,2.963017280E0
9.679041625E0,4.369640045E0,4.233904535E-1,-9.340811522E-1,4.488376231E0
9.689057625E0,5.523910235E0,4.002161837E-1,-4.469317822E-1,5.556393191E0
9.699072625E0,6.011822959E0,-5.430402732E-1,-7.399066687E-2,6.036752658E0
9.709087625E0,6.161895842E0,-1.237897069E0,4.440843344E-2,6.285166794E0
9.719103625E0,5.104875373E0,-1.711406931E0,6.802650690E-2,5.384542122E0
9.729118625E0,3.663636409E0,-2.490431473E0,-1.372059385E-1,4.432076954E0
9.739133625E0,2.362083627E0,-2.887969047E0,-1.947314309E-1,3.736003829E0
9.749149625E0,1.056581928E0,-2.822051631E0,-4.242720674E-1,3.043081919E0
9.759164625E0,9.879342277E-2,-2.330604265E0,-5.726200216E-1,2.401951304E0
9.769179625E0,-2.633431344E-1,-1.780611652E0,-2.740904264E-1,1.820728707E0
9.779194625E0,-1.854514245E-1,-1.441934490E0,9.377282068E-2,1.456832401E0
9.789210625E0,-1.042456225E-1,-9.730287248E-1,4.589106806E-1,1.080856633E0
9.799225625E0,-1.137226434E-1,-4.088443351E-1,3.028179431E-1,5.213302568E-1
9.809240625E0,-1.015372653E-1,-1.351636523E-1,1.433795750E-1,2.216680664E-1
9.819256625E0,4.894426480E-2,-2.868006653E-1,3.938086586E-1,4.896278405E-1
9.829271625E0,2.627229276E-1,-4.436744446E-1,8.853128886E-1,1.024523919E0
9.839286625E0,2.619126496E-1,-6.398268950E-1,1.411226667E0,1.571476184E0
9.849301625E0,4.147064611E-2,-5.840918201E-1,1.475441667E0,1.587391313E0
9.859317625E0,-1.189349976E-1,-5.563181305E-1,1.680322256E0,1.774011916E0
9.869332625E0,-5.173364979E-1,-3.692487448E-1,1.605801246E0,1.727014572E0
9.879347625E0,-1.187121091E0,-4.400433236E-1,1.219516493E0,1.757872318E0
9.889363625E0,-1.598964390E0,-4.968952167E-1,9.916155615E-1,1.945994193E0
9.899378625E0,-1.839956213E0,-3.180780065E-1,1.121035348E0,2.177919359E0
9.909393625E0,-1.970627742E0,-1.740324336E-1,1.389078584E0,2.417271250E0
9.919408625E0,-1.751403494E0,-2.635357636E-1,1.740370822E0,2.483094017E0
9.929424625E0,-1.068330154E0,-4.409011102E-1,2.302706322E0,2.576466478E0
9.939439625E0,-6.852832226E-1,-5.936286288E-1,2.677662534E0,2.826992163E0
9.949454625E0,-2.907149376E-1,-7.155366433E-1,2.664422099E0,2.774103996E0
9.959470625E0,-2.880280689E-1,-8.639454085E-1,2.741248080E0,2.888564155E0
9.969485625E0,-3.384266824E-1,-9.682363468E-1,2.536034492E0,2.735595948E0
9.979500625E0,-2.482241716E-1,-9.443966639E-1,2.489776000E0,2.674412987E0
9.989516625E0,-7.504188661E-1,-6.931944323E-1,2.824910627E0,3.003958562E0
9.999531625E0,-2.211719407E0,-4.278869623E-1,3.309752393E0,4.003654692E0
1.000954663E1,-3.584295833E0,8.103831589E-2,3.560156480E0,5.052569444E0
1.001956163E1,-4.360910152E0,8.221313846E-1,3.340266088E0,5.554350988E0
1.002957763E1,-4.385792393E0,1.192864738E0,2.688211788E0,5.280585556E0
1.003959263E1,-3.608249536E0,1.401869953E0,1.689433387E0,4.223610925E0
1.004960763E1,-2.500894480E0,1.762595796E0,5.212231421E-1,3.103689853E0
1.005962363E1,-1.154691482E0,2.024640520E0,-4.766504019E-1,2.379007621E0
1.006963863E1,2.435260069E-1,2.022450737E0,-1.033826027E0,2.284383539E0
1.007965362E1,9.148751684E-1,1.558920903E0,-8.856330237E-1,2.012852902E0
1.008966862E1,8.464903003E-1,9.207955474E-1,-4.703076348E-1,1.336263275E0
1.009968463E1,5.450817920E-1,3.516725993E-1,-2.610603449E-1,6.992426480E-1
1.010969962E1,3.136354382E-1,-2.170439672E-1,-6.823677278E-1,7.817294850E-1
1.011971404E1,4.774357561E-2,-5.317627484E-1,-1.698393076E0,1.780334269E0
1.012973004E1,2.482745673E-1,-5.577986455E-1,-3.166289788E0,3.224619452E0
1.013974504E1,1.525820692E0,-4.468564993E-1,-4.548361653E0,4.818236528E0
1.014976004E1,2.828869484E0,-2.086502892E-1,-5.187132833E0,5.912054172E0
1.015977504E1,3.523460231E0,9.480792403E-2,-5.079461035E0,6.182611499E0
1.016979104E1,4.099898631E0,3.791510046E-1,-4.466999109E0,6.075113604E0
1.017980604E1,4.545089259E0,9.171153098E-1,-3.498364567E0,5.808398359E0
1.018982104E1,4.962274647E0,1.686834592E0,-2.250946623E0,5.704063579E0
1.019983704E1,5.193712705E0,2.715432916E0,-7.005128074E-1,5.902452522E0
1.020985204E1,4.804558284E0,3.930558588E0,1.846970241E-1,6.210248313E0
1.021986704E1,3.139464809E0,4.247706302E0,-4.434901842E-1,5.300559561E0
1.022988204E1,1.446144046E0,3.942974566E0,-1.178233835E0,4.361950939E0
1.023989804E1,-1.584076501E-1,3.695774753E0,-1.435900748E0,3.968079506E0
1.024991304E1,-1.501694788E0,3.209441362E0,-1.430720115E0,3.821329760E0
1.025992804E1,-2.323176547E0,2.800661346E0,-2.100084804E0,4.201334244E0
1.026994404E1,-3.095400192E0,2.405778993E0,-2.324047197E0,4.557463141E0
1.027995904E1,-3.568662717E0,1.985998026E0,-1.848571501E0,4.482940813E0
1.028997404E1,-3.906148801E0,6.691617912E-1,-1.323566380E0,4.178229759E0
1.029999004E1,-4.029226551E0,-5.111255854E-1,-1.148442271E0,4.220762445E0
1.031000504E1,-3.507715726E0,-1.130932783E0,-8.980644965E-1,3.793362416E0
1.032002004E1,-2.770175133E0,-1.687330436E0,-7.525694720E-1,3.329762016E0
1.033003504E1,-2.070727542E0,-1.848546942E0,-4.696998898E-1,2.815254223E0
1.034005104E1,-1.450239290E0,-2.482932419E0,-2.420443225E-1,2.885607882E0
1.035006604E1,-5.903465502E-1,-2.760714923E0,7.642296240E-2,2.824162957E0
1.036008104E1,1.479495486E-1,-2.878781317E0,3.374743903E-1,2.902268062E0
1.037009704E1,6.401056610E-1,-2.385005590E0,3.805204955E-1,2.498556137E0
1.038011204E1,5.962602413E-1,-1.849373154E0,4.216194049E-1,1.988333539E0
1.039012704E1,7.551178347E-1,-1.616353424E0,5.620356110E-1,1.870477309E0
1.040014204E1,1.070038272E0,-1.561645705E0,7.370602441E-1,2.031496250E0
1.041015804E1,1.147798858E0,-1.689384563E0,9.746443105E-1,2.263049701E0
1.042017304E1,8.454700343E-1,-2.098723572E0,1.051483887E0,2.495010737E0
1.043018804E1,3.716846583E-1,-2.555212190E0,7.029287307E-1,2.676073172E0
1.044020404E1,-2.090690960E-1,-2.811165285E0,5.772008765E-1,2.877415680E0
1.045021904E1,-6.051308695E-1,-2.743454527E0,8.116357056E-1,2.924291133E0
1.046023404E1,-9.251619557E-1,-2.594966240E0,1.145966560E0,2.983791847E0
1.047025004E1,-1.370185938E0,-2.659918281E0,1.501792144E0,3.347828312E0
1.048026504E1,-1.638502092E0,-2.778867604E0,1.804260277E0,3.696234492E0
1.049028004E1,-1.874587956E0,-2.931910288E0,2.212880079E0,4.123956375E0
1.050029504E1,-1.968581655E0,-2.712235073E0,2.642771906E0,4.267994397E0
1.051031104E1,-2.046047468E0,-2.224614710E0,2.827279626E0,4.138687103E0
1.052032604E1,-2.149758948E0,-1.611048245E0,2.419579006E0,3.615425639E0
1.053034104E1,-2.525635219E0,-1.487764966E0,1.437397781E0,3.264719013E0
1.054035704E1,-2.546243438E0,-1.026387491E0,2.461270677E-1,2.756339142E0
1.055037204E1,-2.013174861E0,-4.133396745E-2,-1.248130427E0,2.369052781E0
1.056038704E1,-1.579175511E0,9.334296262E-1,-2.837146218E0,3.378532940E0
1.057040204E1,-7.276156021E-1,1.681175072E0,-3.353551254E0,3.821266819E0
1.058041804E1,7.011225989E-1,3.002916536E0,-2.707825688E0,4.103827552E0
1.059043304E1,1.805472697E0,4.362500594E0,-1.162762102E0,4.862423141E0
1.060044804E1,2.096886962E0,4.041367418E0,6.335494705E-1,4.596843533E0
1.061046404E1,2.471765991E0,2.890551762E0,3.002954543E0,4.845890278E0
1.062047904E1,1.204211552E0,1.723342853E0,4.154555479E0,4.656218131E0
1.063049404E1,-6.168102077E-1,1.220501602E0,4.087275077E0,4.309976398E0
1.064051004E1,-2.197437144E0,7.631423342E-1,3.775727241E0,4.434775352E0
1.065052504E1,-2.852490773E0,7.911259389E-1,2.987693310E0,4.205816826E0
1.066054004E1,-2.198515078E0,1.107171453E0,1.408534609E0,2.836065395E0
1.067055504E1,-9.458916508E-1,1.700139931E0,-8.576321697E-1,2.126198424E0
1.068057104E1,1.033651122E0,2.662418550E0,-3.122361703E0,4.231554062E0
1.069058604E1,3.698085865E0,4.030136670E0,-4.019723364E0,6.787931686E0
1.070060104E1,6.071445263E0,5.799954363E0,-1.907601482E0,8.610508789E0
1.071061704E1,4.212796963E0,5.049618600E0,1.614510163E-1,6.578173963E0
1.072063204E1,1.273424166E0,2.199991500E0,-3.127546648E-1,2.561130061E0
1.073064704E1,4.984544864E-1,1.025562449E0,-9.024745397E-1,1.454199267E0
1.074066304E1,-4.640273597E-1,4.888693285E-1,-1.167112503E0,1.347763409E0
1.075067804E1,-1.372685768E0,4.365525359E-1,-1.751563854E0,2.267778709E0
1.076069304E1,-2.062534278E0,5.665203524E-1,-1.804322112E0,2.798315786E0
1.077070804E1,-2.123197094E0,7.717079204E-1,-1.699597310E0,2.827035555E0
1.078072404E1,-1.367381613E0,7.373923659E-1,-1.187742577E0,1.955559359E0
1.079073904E1,-8.336533231E-1,4.144067913E-1,-1.004272152E0,1.369406224E0
1.080075404E1,-3.716138705E-1,1.151924872E-1,-1.399831613E0,1.452891849E0
1.081077004E1,2.836473715E-1,2.677381575E-1,-1.667216599E0,1.712235597E0
1.082078504E1,1.260717436E0,7.068155211E-1,-1.645366431E0,2.190029070E0
1.083080004E1,2.273391745E0,9.056015575E-1,-1.573966373E0,2.909603813E0
1.084081504E1,3.440224240E0,6.889125162E-1,-1.373762387E0,3.767886194E0
1.085083104E1,4.504252597E0,3.349483931E-1,-9.049082239E-1,4.606445568E0
1.086084604E1,5.081361964E0,-3.489343482E-1,-6.950117469E-2,5.093802608E0
1.087086104E1,5.262692893E0,-1.181383145E0,5.920715153E-1,5.426062227E0
1.088087704E1,4.596922194E0,-2.139847040E0,7.623915517E-1,5.127560813E0
1.089089204E1,3.414016727E0,-3.052331355E0,6.748762751E-1,4.629005822E0
1.090090704E1,2.256500454E0,-3.749004881E0,6.127040005E-1,4.418397683E0
1.091092204E1,1.044225373E0,-3.906138276E0,3.205328138E-1,4.055991143E0
1.092093804E1,-4.654427513E-2,-3.510149045E0,1.031016147E-1,3.511971331E0
1.093095304E1,-5.441616230E-1,-3.127480356E0,1.672692516E-1,3.178871537E0
1.094096804E1,-4.236952396E-1,-2.240205141E0,5.802801664E-1,2.352607448E0
1.095098404E1,-2.900213116E-1,-1.410142593E0,7.299454983E-1,1.614135969E0
1.096099904E1,-2.235140210E-1,-5.714653426E-1,5.204092097E-1,8.045849247E-1
1.097101404E1,-1.655361369E-1,5.449657613E-1,1.921931545E-1,6.011057330E-1
1.098103004E1,1.459556390E-2,1.426072748E0,-1.600523257E-1,1.435100435E0
1.099104504E1,4.358488600E-1,1.622025223E0,1.150147319E-2,1.679601839E0
1.100106004E1,5.882174693E-1,1.155778772E0,7.593393052E-1,1.502804226E0
1.101107504E1,4.532894598E-1,2.974700797E-1,1.583311686E0,1.673569741E0
1.102109104E1,1.252009470E-1,-4.286149406E-1,1.823177336E0,1.877061971E0
1.103110604E1,-2.388271113E-1,-7.838560957E-1,1.909418796E0,2.077823117E0
1.104112104E1,-4.839879267E-1,-9.454222655E-1,1.897702146E0,2.174704809E0
1.105113704E1,-8.555035640E-1,-9.771135896E-1,1.765903274E0,2.192042811E0
1.106115204E1,-1.229161913E0,-8.114590466E-1,1.736585627E0,2.277067068E0
1.107116704E1,-1.488003532E0,-6.654990953E-1,1.942401770E0,2.535738195E0
1.108118304E1,-1.347110193E0,-6.218116236E-1,2.481300753E0,2.891056726E0
1.109119804E1,-9.274536987E-1,-6.982154363E-1,3.087458211E0,3.298495621E0
1.110121304E1,-7.668759276E-1,-9.126901370E-1,3.365086349E0,3.570001136E0
1.111122804E1,-9.168217065E-1,-1.038450882E0,3.334416826E0,3.610717082E0
1.112124425E1,-9.789856488E-1,-1.064558700E0,3.032240615E0,3.359491222E0
1.113125925E1,-5.284046924E-1,-1.156535987E0,2.752444329E0,3.031952637E0
1.114127425E1,-8.074325077E-1,-1.516833814E0,2.682147056E0,3.185379868E0
1.115129025E1,-2.096290254E0,-1.271184098E0,2.919689899E0,3.812470452E0
1.116130525E1,-3.417600777E0,-4.220070022E-1,3.064760782E0,4.609863732E0
1.117132025E1,-4.160919589E0,3.399933708E-1,2.547335991E0,4.890579512E0
1.118133525E1,-4.024715424E0,9.986231571E-1,2.374231803E0,4.778342716E0
1.119135125E1,-3.102780255E0,1.836217504E0,2.432994273E0,4.349528844E0
1.120136625E1,-1.879650621E0,2.733805452E0,1.689165877E0,3.722910161E0
1.121138125E1,-4.548012574E-1,3.584506917E0,5.023755196E-1,3.648001533E0
1.122139725E1,1.062046151E0,3.603329689E0,-4.471295643E-1,3.783100808E0
1.123141225E1,1.766053108E0,2.766213645E0,-6.383045724E-1,3.343398606E0
1.124142725E1,1.369816101E0,1.546821259E0,-3.211267447E-1,2.090974544E0
1.125144325E1,7.508716598E-1,5.633002907E-1,-1.734775329E-1,9.545731619E-1
1.126145825E1,6.017233680E-1,-6.472107589E-2,-5.944381759E-1,8.483021715E-1
1.127147325E1,6.969222515E-1,-6.082905221E-1,-1.656177056E0,1.897008283E0
1.128148825E1,6.295928058E-1,-1.110193879E0,-3.340315497E0,3.575839086E0
1.129150425E1,1.134754158E0,-1.318447142E0,-4.658344563E0,4.972538983E0
1.130151925E1,2.270247697E0,-1.149975411E0,-5.217298619E0,5.804883541E0
1.131153425E1,3.253196077E0,-5.623121113E-1,-5.209690222E0,6.167686100E0
1.132155025E1,3.901961610E0,-8.546875119E-3,-4.920012141E0,6.279482218E0
1.133156525E1,4.567152850E0,6.586783183E-1,-4.132622573E0,6.194458137E0
1.134158025E1,5.044970064E0,1.532653456E0,-2.769679874E0,5.955827076E0
1.135159625E1,5.365376431E0,2.469622402E0,-1.144920054E0,6.016405986E0
1.136161125E1,5.101045446E0,3.904839025E0,-2.184519768E-2,6.424088237E0
1.137162625E1,3.512814498E0,4.782489138E0,-1.916753105E-1,5.937070614E0
1.138164125E1,1.813250079E0,4.696830937E0,-9.859435431E-1,5.130319811E0
1.139165725E1,5.117279217E-1,4.286476851E0,-1.462786245E0,4.558014135E0
1.140167225E1,-4.790077069E-1,3.875877766E0,-1.503557711E0,4.184801385E0
1.141168725E1,-1.341669067E0,3.285087960E0,-1.581282409E0,3.884885179E0
1.142170325E1,-2.247641045E0,2.850521139E0,-1.792234747E0,4.048390597E0
1.143171825E1,-3.553054744E0,1.519734617E0,-2.099289583E0,4.397818559E0
1.144173325E1,-3.815222844E0,5.461281878E-1,-1.533551588E0,4.148006970E0
1.145174925E1,-3.440192080E0,-7.218855500E-2,-7.665698259E-1,3.525303112E0
1.146176425E1,-3.648447390E0,-8.142937768E-1,-1.085592962E0,3.892653952E0
1.147177925E1,-3.246568843E0,-1.483487143E0,-8.191867268E-1,3.662241151E0
1.148179425E1,-2.464796987E0,-1.960660286E0,-5.631615655E-1,3.199463063E0
1.149181025E1,-1.626945655E0,-2.397681184E0,-2.236663775E-1,2.906175128E0
1.150182525E1,-8.186838663E-1,-2.628481311E0,-9.208787240E-2,2.754566654E0
1.151184025E1,-1.928152069E-1,-2.739009474E0,-7.266919613E-3,2.745797409E0
1.152185625E1,1.597646610E-1,-2.696425956E0,2.243412924E-1,2.710455073E0
1.153187125E1,3.606496833E-1,-2.678915300E0,5.817311530E-1,2.764971340E0
1.154188625E1,7.074465088E-1,-2.707416968E0,8.280418233E-1,2.918259834E0
1.155190225E1,8.588172542E-1,-2.646528742E0,1.113392964E0,2.996885942E0
1.156191725E1,7.493483140E-1,-2.640048273E0,1.204885443E0,2.997186466E0
1.157193225E1,6.710616247E-1,-2.747223642E0,1.215640666E0,3.078204619E0
1.158194725E1,4.528069549E-1,-2.844716023E0,1.059896715E0,3.069336156E0
1.159196325E1,3.409983336E-2,-2.908743035E0,8.481468896E-1,3.030066334E0
1.160197825E1,-2.553310968E-1,-2.944552553E0,7.853442121E-1,3.058161087E0
1.161199325E1,-6.013790401E-1,-2.944683530E0,9.260853772E-1,3.144908897E0
1.162200925E1,-1.008789199E0,-2.898029766E0,1.258787270E0,3.316742011E0
1.163202425E1,-1.456123635E0,-3.035784320E0,1.698936574E0,3.771295263E0
1.164203925E1,-1.737125471E0,-3.023638483E0,2.008881104E0,4.024375463E0
1.165205525E1,-1.921956835E0,-2.945441914E0,2.326563985E0,4.216923775E0
1.166207025E1,-2.094479079E0,-2.861617400E0,2.584685665E0,4.388199716E0
1.167208525E1,-2.211034698E0,-2.546774658E0,2.307499577E0,4.086476464E0
1.168210025E1,-2.186008177E0,-1.334307715E0,1.594699284E0,3.016964473E0
1.169211625E1,-1.966625323E0,-1.129155815E-2,2.362451271E-1,1.980796411E0
1.170213125E1,-1.535198603E0,1.233757825E0,-1.686609474E0,2.592999159E0
1.171214625E1,-9.333136321E-1,2.354334605E0,-3.451040711E0,4.280613012E0
1.172216225E1,-3.251161538E-2,3.412735602E0,-4.801216600E0,5.890628331E0
1.173217725E1,1.510549957E0,4.652006181E0,-4.380135212E0,6.565706905E0
1.174219225E1,2.429775820E0,5.021321000E0,-1.386621584E0,5.748060067E0
1.175220825E1,3.214508559E0,4.319252248E0,2.535159749E0,5.951137724E0
1.176222325E1,3.187038048E0,3.733629043E0,4.457076384E0,6.630439445E0
1.177223825E1,1.126634715E0,1.807477269E0,4.127411535E0,4.644545816E0
1.178225325E1,-1.267041492E0,2.623476094E-1,4.562837312E0,4.742752866E0
1.179226925E1,-2.515138590E0,-8.673701227E-2,5.350721555E0,5.913008252E0
1.180228425E1,-3.158368272E0,-9.333091736E-2,3.155535296E0,4.465579896E0
1.181229925E1,-3.127227463E0,1.700586659E-1,4.583760989E-1,3.165214085E0
1.182231525E1,-1.960028787E0,1.186030512E0,-4.245488600E-1,2.329940547E0
1.183233025E1,1.725635308E-2,1.831016405E0,-2.575961620E0,3.160458372E0
1.184234525E1,3.143021670E0,3.337760264E0,-4.043767115E0,6.113205483E0
1.185236125E1,5.819001083E0,6.058465614E0,-3.344304467E0,9.041579042E0
1.186237625E1,6.297423776E0,8.155105823E0,-1.441102431E0,1.040384897E1
1.187239125E1,4.785757146E0,6.251506761E0,-9.760055423E-2,7.873648082E0
1.188240625E1,2.498094833E0,2.581779014E0,-7.772107351E-1,3.675611133E0
1.189242225E1,1.559018113E0,1.765216518E0,-1.471787449E0,2.777172146E0
1.190243725E1,2.632120837E-1,1.605612674E0,-1.569175165E0,2.260438753E0
1.191245225E1,-1.079079383E0,8.641629249E-1,-1.887518635E0,2.339640244E0
1.192246825E1,-1.199095092E0,3.552826703E-1,-1.340253164E0,1.833121207E0
1.193248325E1,-1.181935999E0,-3.734411985E-1,-7.891249486E-1,1.469404376E0
1.194249825E1,-1.217563230E0,-1.317736706E0,-6.375814180E-1,1.904048400E0
1.195251425E1,-9.163500555E-1,-2.021401747E0,-8.084465611E-1,2.362064412E0
1.196252925E1,-2.997328425E-1,-1.792149378E0,-1.024110585E0,2.085771239E0
1.197254425E1,4.612020582E-1,-1.223879539E0,-9.799044657E-1,1.634258617E0
1.198255925E1,1.339489079E0,-3.988029116E-1,-9.930020826E-1,1.714446818E0
1.199257525E1,2.358070098E0,2.211533904E-1,-9.159300792E-1,2.539356478E0
1.200259025E1,3.355234668E0,1.697084177E-1,-4.856545293E-1,3.394445602E0
1.201260525E1,4.329394829E0,-2.089151680E-2,4.077378957E-1,4.348602791E0
1.202262125E1,4.680977673E0,-4.910216886E-1,1.096802147E0,4.832766208E0
1.203263625E1,4.262543027E0,-1.378457701E0,1.081640025E0,4.608618430E0
1.204265125E1,3.407293306E0,-2.288715981E0,8.027839713E-1,4.182383366E0
1.205266725E1,2.427462515E0,-2.620502200E0,6.568912630E-1,3.631957072E0
1.206268225E1,1.246707800E0,-2.788994397E0,4.250810297E-1,3.084390372E0
1.207269725E1,1.538785248E-1,-2.728483901E0,2.353552540E-1,2.742935489E0
1.208271225E1,-4.881707324E-1,-2.408957539E0,9.724855185E-2,2.459846412E0
1.209272825E1,-5.222285709E-1,-2.221587607E0,3.824548276E-1,2.313967560E0
1.210274325E1,5.723203517E-2,-1.752168456E0,8.048269884E-1,1.929019514E0
1.211275825E1,-1.229771413E-1,-1.426518890E0,6.794792032E-1,1.584856936E0
1.212277379E1,-2.654299326E-1,-8.531602192E-1,3.306971750E-1,9.527308278E-1
1.213278879E1,-1.000276238E-1,-1.547448081E-1,3.495485982E-1,3.951401064E-1
1.214280379E1,1.968951930E-1,1.880008471E-1,8.062364598E-1,8.509578512E-1
1.215281979E1,4.603145240E-1,-8.324680924E-3,1.442922961E0,1.514590847E0
1.216283479E1,5.375808741E-1,-4.679807353E-1,1.971196969E0,2.096095574E0
1.217284979E1,4.012363035E-1,-8.288264465E-1,2.137147965E0,2.327089443E0
1.218286479E1,1.790344343E-1,-9.027358371E-1,2.056817747E0,2.253327443E0
1.219288079E1,-8.908912785E-2,-8.324014342E-1,1.832907979E0,2.015038630E0
1.220289579E1,-4.331020939E-1,-7.390336794E-1,1.575429347E0,1.793244498E0
1.221291079E1,-6.232121048E-1,-6.603260636E-1,1.372882673E0,1.645974080E0
1.222292679E1,-5.423906475E-1,-4.745518363E-1,1.428007007E0,1.599559649E0
1.223294179E1,-2.782181221E-1,-2.294143367E-1,1.777397438E0,1.813609085E0
1.224295679E1,2.690602130E-1,-1.740780419E-1,2.215188999E0,2.238249062E0
1.225297279E1,3.707152265E-1,-2.578569478E-1,2.822258330E0,2.858157110E0
1.226298779E1,1.822585159E-1,-2.133339089E-1,2.945556520E0,2.958890457E0
1.227300279E1,4.026263329E-1,-1.350665885E-1,2.962864863E0,2.993145359E0
1.228301879E1,4.981585076E-1,-4.811322927E-2,3.025586483E0,3.066700238E0
1.229303379E1,-6.284850508E-2,-9.371098638E-2,2.602001317E0,2.604446686E0
1.230304879E1,-9.909573843E-1,-2.491381645E-2,1.638905550E0,1.915366450E0
1.231306379E1,-2.080590187E0,2.691882670E-1,1.022712809E0,2.333936447E0
1.232307979E1,-2.945287548E0,5.509182268E-1,6.134255469E-1,3.058516067E0
1.233309479E1,-3.014944551E0,8.593073970E-1,7.600617287E-1,3.225832246E0
1.234310979E1,-2.819321566E0,9.177374536E-1,1.324550174E0,3.247344960E0
1.235312579E1,-2.137864103E0,1.256082494E0,1.730108373E0,3.023488240E0
1.236314079E1,-1.090686544E0,1.895948566E0,1.665279416E0,2.749067776E0
1.237315579E1,1.701125516E-1,2.624839665E0,1.664216685E0,3.112609632E0
1.238317179E1,1.206448258E0,2.731117487E0,1.988217336E0,3.587133717E0
1.239318679E1,1.560732809E0,2.179340889E0,2.242986954E0,3.495197289E0
1.240320179E1,1.532075458E0,1.319465142E0,2.298654786E0,3.061381600E0
1.241321679E1,1.531945943E0,5.573542571E-1,1.915235314E0,2.515080207E0
1.242323279E1,1.446179276E0,-3.447676224E-1,8.650359142E-1,1.720054169E0
1.243324779E1,1.200877908E0,-1.237709373E0,-7.543276566E-1,1.882297122E0
1.244326279E1,7.308227268E-1,-2.083131972E0,-2.563626626E0,3.383152693E0
1.245327879E1,7.171411923E-1,-2.588623765E0,-3.862047639E0,4.704325292E0
1.246329379E1,1.594196278E0,-2.350702899E0,-3.999040301E0,4.905057514E0
1.247330879E1,2.426027462E0,-1.857790806E0,-3.461722113E0,4.617414418E0
1.248332479E1,2.855059748E0,-1.439147707E0,-2.642769567E0,4.148101164E0
1.249333979E1,3.759977766E0,2.617354059E-1,-1.979426194E0,4.257236930E0
1.250335479E1,4.789489424E0,2.708100507E0,-1.408363724E0,5.679481110E0
1.251336979E1,5.040133247E0,5.053067873E0,-1.067277070E0,7.216336911E0
1.252338579E1,4.694398495E0,6.627376308E0,-9.749881268E-1,8.179859155E0
1.253340079E1,4.089737924E0,7.167405265E0,-6.377195585E-1,8.276734909E0
1.254341579E1,2.977240827E0,6.252685559E0,-5.208185148E-1,6.944875202E0
1.255343179E1,1.424821736E0,4.449556280E0,-1.137615420E0,4.808621103E0
1.256344679E1,1.211306271E-1,3.158827863E0,-1.456591559E0,3.480592632E0
1.257346179E1,-6.515518780E-1,2.784458127E0,-1.027133450E0,3.038540774E0
1.258347779E1,-1.478625037E0,2.290207021E0,-7.116916604E-1,2.817425282E0
1.259349279E1,-2.539540483E0,1.301021855E0,-3.953337586E-1,2.880661818E0
1.260350779E1,-3.193557693E0,-1.734225690E-1,-2.755807355E-2,3.198381712E0
1.261352379E1,-3.293725175E0,-1.052847896E0,2.243132257E-1,3.465173970E0
1.262353879E1,-2.756242973E0,-1.200180189E0,8.188920271E-1,3.115749021E0
1.263355379E1,-1.875537982E0,-1.402517239E0,1.282234751E0,2.669985634E0
1.264356879E1,-1.359286143E0,-1.605722017E0,1.135406634E0,2.390638040E0
1.265358479E1,-1.099365201E0,-2.062867277E0,7.996150728E-1,2.470507946E0
1.266359979E1,-5.912779751E-1,-2.158050592E0,2.724359567E-1,2.254110324E0
1.267361479E1,2.039750017E-2,-2.108249856E0,7.479653013E-1,2.237093115E0
1.268363079E1,7.662888671E-1,-2.377880757E0,1.336626720E0,2.833387816E0
1.269364579E1,1.141642690E0,-2.448105233E0,1.590357142E0,3.134613708E0
1.270366079E1,1.245310315E0,-2.421634887E0,1.625576237E0,3.171373742E0
1.271367679E1,1.313535773E0,-2.317539831E0,1.607012643E0,3.111086102E0
1.272369179E1,1.382996164E0,-2.242419482E0,1.482662247E0,3.023145855E0
1.273370679E1,1.445855632E0,-2.185250670E0,1.339593744E0,2.942843930E0
1.274372279E1,1.540297521E0,-2.004714963E0,1.337922756E0,2.860320932E0
1.275373779E1,1.523317207E0,-1.888555346E0,1.377809976E0,2.790250336E0
1.276375279E1,1.498148598E0,-1.772751825E0,1.356215916E0,2.688200116E0
1.277376779E1,1.655572161E0,-1.504571033E0,1.400547020E0,2.639353165E0
1.278378379E1,1.764350692E0,-1.289482960E0,1.584739283E0,2.699462588E0
1.279379879E1,1.711738761E0,-1.060479682E0,1.975253621E0,2.820690271E0
1.280381379E1,1.650076802E0,-9.178368562E-1,2.343434956E0,3.009462633E0
1.281382979E1,1.380534194E0,-9.666985291E-1,2.449385919E0,2.973192238E0
1.282384479E1,8.539055930E-1,-1.239229065E0,2.597272382E0,3.001777350E0
1.283385979E1,2.946250255E-1,-1.580848546E0,2.931661781E0,3.343729479E0
1.284387579E1,-5.326986592E-2,-1.423578326E0,2.917763827E0,3.246961453E0
1.285389079E1,-6.987910947E-1,-1.401898019E0,2.047672410E0,2.578098010E0
1.286390579E1,-8.264947962E-1,-9.793910801E-1,8.299388793E-1,1.526793725E0
1.287392079E1,-1.102503475E-1,-9.399691522E-2,-2.304949021E-1,2.722470553E-1
1.288393679E1,4.658619236E-1,1.022714270E0,-2.201815978E0,2.472036693E0
1.289395179E1,1.164771424E0,9.382068014E-1,-4.398862674E0,4.646172328E0
1.290396679E1,3.137616211E0,1.364943616E0,-4.661756998E0,5.782705671E0
1.291398279E1,4.708712187E0,2.418787878E0,-1.267735849E0,5.443313278E0
1.292399779E1,5.016911030E0,2.422547638E0,2.803959761E0,6.237012400E0
1.293401279E1,4.133161394E0,1.029369571E0,5.210190743E0,6.729688879E0
1.294402879E1,2.017804540E0,-2.619377196E-1,6.168869816E0,6.495775653E0
1.295404379E1,-1.873577265E-1,-4.116755569E-1,6.029672170E0,6.046612784E0
1.296405879E1,-2.601432676E0,-2.431085157E-1,4.389694240E0,5.108421404E0
1.297407479E1,-4.501209413E0,1.541285115E-1,2.403329594E0,5.104961794E0
1.298408979E1,-5.626788486E0,6.081811792E-1,1.341640123E0,5.816410511E0
1.299410479E1,-5.404732870E0,1.586159572E0,1.504012770E0,5.830016638E0
1.300411979E1,-4.474034186E0,2.497156355E0,2.022692227E0,5.508543874E0
1.301413579E1,-2.991373547E0,2.487890273E0,1.240962764E0,4.083858750E0
1.302415079E1,-1.343914690E0,2.599179159E0,1.229223602E-1,2.928642843E0
1.303416579E1,1.104189519E0,3.497053036E0,-1.165519649E0,3.847993046E0
1.304418179E1,4.323367811E0,4.962709095E0,-1.788994220E0,6.820593164E0
1.305419679E1,6.825893957E0,6.869010156E0,-1.626660311E-1,9.685173673E0
1.306421179E1,7.233699827E0,7.042134517E0,1.246567905E0,1.017211892E1
1.307422779E1,5.508439087E0,3.854842992E0,9.288245054E-1,6.787151880E0
1.308424279E1,3.663530867E0,7.070961875E-1,3.504107702E-1,3.747563360E0
1.309425779E1,2.512425774E0,-2.837437409E-1,-2.587872398E-1,2.541606700E0
1.310427379E1,1.121146737E0,-5.822557944E-1,-8.040868771E-1,1.497513780E0
1.311428879E1,-6.008110562E-1,-8.013673371E-1,-1.733038559E0,2.001645868E0
1.312430400E1,-1.643676878E0,-6.840406162E-1,-2.300831412E0,2.909194121E0
1.313431900E1,-1.621075051E0,-4.377833748E-1,-1.989325676E0,2.603258583E0
1.314433500E1,-1.047417660E0,-2.316006106E-1,-1.516223803E0,1.857325286E0
1.315435000E1,-4.162947111E-1,-3.570526224E-1,-1.181165775E0,1.302282784E0
1.316436500E1,5.358301447E-1,-4.553326231E-1,-1.039801004E0,1.255240164E0
1.317438100E1,1.843128620E0,-1.952777070E-1,-7.724755137E-1,2.007977817E0
1.318439600E1,3.134376269E0,-3.127272195E-1,-2.982316795E-1,3.164025134E0
1.319441100E1,4.633874843E0,-4.704184395E-1,7.000423989E-1,4.710005194E0
1.320442700E1,5.928562117E0,-7.215692157E-1,1.864670932E0,6.256637163E0
1.321444200E1,6.441049519E0,-1.052292411E0,2.509467083E0,6.992271681E0
1.322445700E1,5.733113671E0,-1.684934247E0,1.625917861E0,6.192834946E0
1.323447300E1,4.886480114E0,-2.028271641E0,3.665982020E-1,5.303392121E0
1.324448800E1,3.609519844E0,-1.706936150E0,-6.836845207E-1,4.050887439E0
1.325450300E1,1.930441291E0,-1.384551669E0,-1.211876374E0,2.666876684E0
1.326451800E1,5.097589084E-1,-1.577157199E0,-1.098841217E0,1.988650546E0
1.327453400E1,-1.081982306E-1,-1.586017485E0,-3.935303311E-1,1.637688750E0
1.328454900E1,-1.300018765E-2,-1.081291092E0,3.701381063E-1,1.142961788E0
1.329456400E1,-3.315009478E-2,-8.970336324E-1,8.174034722E-1,1.214049712E0
1.330458000E1,-6.809316516E-2,-5.386735725E-1,9.284233864E-1,1.075535160E0
1.331459500E1,-1.829536036E-1,-1.230172312E-1,8.006427209E-1,8.304420671E-1
1.332461000E1,6.503770262E-2,2.116680372E-1,6.855977297E-1,7.204703378E-1
1.333462600E1,5.752669830E-1,4.849440926E-1,8.586767748E-1,1.141678010E0
1.334464100E1,9.991247752E-1,2.441528285E-1,1.117035998E0,1.518430223E0
1.335465600E1,1.330082809E0,-1.590378338E-1,1.274580892E0,1.849045635E0
1.336467200E1,1.426855836E0,-5.551100957E-1,1.338945434E0,2.033922238E0
1.337468700E1,1.333331084E0,-8.264150548E-1,1.373428511E0,2.084955514E0
1.338470200E1,1.106435508E0,-9.342733794E-1,1.431785185E0,2.036436863E0
1.339471700E1,8.252499971E-1,-9.779719609E-1,1.453467830E0,1.936500826E0
1.340473300E1,5.539197488E-1,-9.948844475E-1,1.561439298E0,1.932541030E0
1.341474800E1,3.409796499E-1,-9.538983893E-1,1.731578071E0,2.006128579E0
1.342476300E1,2.170283259E-1,-9.193460226E-1,1.933631824E0,2.152029376E0
1.343477900E1,1.372299121E-1,-8.367476696E-1,2.190414638E0,2.348807144E0
1.344479400E1,3.661935747E-2,-6.833880669E-1,2.576322100E0,2.665669858E0
1.345480900E1,1.188285783E-2,-4.854241490E-1,2.885468777E0,2.926039622E0
1.346482500E1,-1.290872258E-1,-3.473269486E-1,3.128600390E0,3.150466619E0
1.347484000E1,-5.609332647E-1,-2.848792702E-1,2.991269175E0,3.056712875E0
1.348485500E1,-6.912488443E-1,-2.298341668E-1,2.465320313E0,2.570691143E0
1.349487100E1,-5.978392088E-1,-2.564705729E-1,2.006554205E0,2.109371624E0
1.350488600E1,-4.746004412E-1,-3.081991357E-1,1.546461948E0,1.646747352E0
1.351490100E1,-8.160124927E-1,-2.066470331E-1,1.700771723E0,1.897683809E0
1.352491700E1,-1.426809789E0,2.752103144E-1,2.007564603E0,2.478274103E0
1.353493200E1,-2.209566316E0,8.536706811E-1,2.370130565E0,3.350888813E0
1.354494700E1,-2.372575286E0,1.408933389E0,2.668698168E0,3.838770206E0
1.355496200E1,-1.994966193E0,1.564890910E0,2.792982490E0,3.772204244E0
1.356497800E1,-1.360079318E0,1.589982482E0,2.612393574E0,3.347007653E0
1.357499300E1,-3.554162791E-1,1.949330721E0,2.093419563E0,2.882467078E0
1.358500800E1,7.098660866E-1,2.594610729E0,1.491139394E0,3.075615611E0
1.359502400E1,1.535063386E0,3.046350823E0,1.000108642E0,3.554840395E0
1.360503900E1,1.800203625E0,2.850165043E0,6.841514209E-1,3.439801889E0
1.361505400E1,1.621306893E0,1.963939404E0,5.531375375E-1,2.606080421E0
1.362507000E1,1.372704772E0,9.184484750E-1,4.261871767E-1,1.705726092E0
1.363508500E1,1.046820148E0,-2.860457897E-3,7.510251492E-2,1.049514646E0
1.364510000E1,6.726519942E-1,-6.716988981E-1,-7.105954537E-1,1.186838664E0
1.365511600E1,3.166123654E-1,-1.162695444E0,-1.736933244E0,2.114010685E0
1.366513100E1,1.917587064E-2,-1.547672614E0,-2.874906075E0,3.265079352E0
1.367514600E1,3.816734934E-1,-1.618667752E0,-3.760507231E0,4.111833482E0
1.368516200E1,1.450105827E0,-1.249867489E0,-3.901597914E0,4.345968468E0
1.369517700E1,2.277295931E0,-6.942843533E-1,-3.738708519E0,4.432386367E0
1.370519200E1,2.708134421E0,-3.700656009E-1,-3.607338832E0,4.525906986E0
1.371520700E1,3.455548038E0,2.224286681E-1,-3.434468533E0,4.877075031E0
1.372522300E1,4.336234902E0,9.850248724E-1,-2.655242847E0,5.179142950E0
1.373523800E1,4.985703855E0,2.381223611E0,-1.232348500E0,5.660932047E0
1.374525300E1,4.772732181E0,3.415924088E0,1.208280337E-1,5.870443703E0
1.375526900E1,3.434929878E0,3.556695805E0,3.781066918E-1,4.959011291E0
1.376528400E1,1.973638181E0,3.687394524E0,-1.528472404E-1,4.185150932E0
1.377529900E1,5.449039635E-1,3.645061267E0,-6.118689450E-1,3.736010650E0
1.378531500E1,-6.343211567E-1,3.318184955E0,-6.729501291E-1,3.444644626E0
1.379533000E1,-1.940499817E0,2.864121178E0,-1.156271693E0,3.647697066E0
1.380534500E1,-3.168035766E0,2.419131110E0,-1.478725755E0,4.251502770E0
1.381536100E1,-4.095667001E0,1.518152946E0,-1.271136736E0,4.549182910E0
1.382537600E1,-4.310399856E0,7.876784205E-1,-8.382695536E-1,4.461241986E0
1.383539100E1,-3.883440847E0,3.029249471E-1,-6.047623122E-1,3.941904843E0
1.384540700E1,-3.420682845E0,-4.763767523E-1,-3.751901738E-1,3.474014047E0
1.385542200E1,-2.851335948E0,-1.157557495E0,-4.022719916E-1,3.103526833E0
1.386543700E1,-2.163569048E0,-1.567772418E0,-3.365153738E-1,2.692987927E0
1.387545200E1,-1.508996644E0,-2.008012208E0,-1.922014137E-1,2.519151699E0
1.388546800E1,-6.276177625E-1,-2.534190280E0,3.041066694E-1,2.628403565E0
1.389548300E1,3.419760154E-1,-2.302135926E0,5.352272967E-1,2.388146912E0
1.390549800E1,6.779485483E-1,-2.020605941E0,4.163755488E-1,2.171596463E0
1.391551400E1,9.241422012E-1,-1.741223638E0,3.593255813E-1,2.003749844E0
1.392552900E1,1.265458212E0,-1.494293382E0,5.233585453E-1,2.026869844E0
1.393554400E1,1.573395977E0,-1.532688539E0,9.611150229E-1,2.397592782E0
1.394556000E1,1.615773380E0,-1.783445798E0,1.348387664E0,2.758541611E0
1.395557500E1,1.425649117E0,-2.108124141E0,1.242747188E0,2.832151721E0
1.396559000E1,9.034268318E-1,-2.334048275E0,1.088412416E0,2.729212886E0
1.397560600E1,2.590976356E-1,-2.642356753E0,8.599581921E-1,2.790825844E0
1.398562100E1,-2.392218715E-1,-2.891156364E0,7.874128108E-1,3.005999195E0
1.399563600E1,-4.592588092E-1,-2.781104164E0,1.007117261E0,2.993283181E0
1.400565200E1,-7.283175603E-1,-2.559207008E0,1.282392626E0,2.953729477E0
1.401566700E1,-1.018178585E0,-2.499800466E0,1.681007988E0,3.179855006E0
1.402568200E1,-1.303889476E0,-2.581394852E0,2.109587699E0,3.579676998E0
1.403569800E1,-1.608426792E0,-2.562368013E0,2.586968418E0,3.980599475E0
1.404571300E1,-1.963469873E0,-2.779785617E0,2.797456487E0,4.405472145E0
1.405572800E1,-1.483127685E0,-2.027614998E0,2.873855038E0,3.817058172E0
1.406574400E1,-1.019807327E0,-1.408276162E0,2.437855210E0,2.994392552E0
1.407575900E1,-1.016315297E0,-2.484674889E-1,9.145898974E-1,1.389642960E0
1.408577400E1,-1.484977598E0,7.229000419E-1,-1.195630617E0,2.038939800E0
1.409578900E1,-4.762084986E-1,1.946516456E0,-2.311328187E0,3.059074834E0
1.410580500E1,1.193619101E0,2.510296803E0,-2.444633156E0,3.701695269E0
1.411582000E1,2.584556442E0,3.425657364E0,-2.351270664E0,4.893213066E0
1.412583467E1,2.767083126E0,3.526644040E0,-1.227055600E0,4.647540496E0
1.413585067E1,2.405030549E0,2.762173803E0,1.878772223E0,4.116255717E0
1.414586567E1,1.647922541E0,1.858394238E0,4.575003029E0,5.205759365E0
1.415588067E1,-2.901337244E-2,1.169667664E0,4.891016968E0,5.029016922E0
1.416589667E1,-1.859790846E0,7.327876836E-1,4.216925390E0,4.666718282E0
1.417591167E1,-3.550857945E0,9.857633758E-1,3.392833141E0,5.009155448E0
1.418592667E1,-4.784956663E0,1.686756240E0,2.715976707E0,5.754779435E0
1.419594267E1,-4.804350123E0,2.146847327E0,2.944007592E0,6.029752420E0
1.420595767E1,-3.904467435E0,2.178822826E0,3.216145195E0,5.507787647E0
1.421597267E1,-2.508306703E0,2.246371615E0,1.650739145E0,3.750030357E0
1.422598867E1,-6.033306945E-1,2.616691570E0,-9.143326199E-1,2.836738768E0
1.423600367E1,1.467971264E0,3.531952143E0,-2.933063943E0,4.820009301E0
1.424601867E1,3.364425614E0,4.891374233E0,-3.116472387E0,6.705020637E0
1.425603367E1,5.046586234E0,5.598337689E0,-9.878847456E-1,7.601666513E0
1.426604967E1,4.337383002E0,3.834704012E0,8.434831504E-1,5.850582022E0
1.427606467E1,2.590003416E0,9.963813347E-1,3.748229686E-1,2.800247438E0
1.428607967E1,1.637367294E0,-6.950760663E-1,-5.203834089E-1,1.853348668E0
1.429609567E1,7.919669147E-1,-1.645349767E0,-8.538851278E-1,2.015814292E0
1.430611067E1,8.568126094E-2,-1.959137086E0,-1.021888570E0,2.211292756E0
1.431612567E1,-5.204827750E-1,-1.627866007E0,-1.157137007E0,2.063932196E0
1.432614167E1,-1.224978377E0,-1.148679668E0,-1.393956331E0,2.182464491E0
1.433615667E1,-1.732945589E0,-4.955433404E-1,-1.398052744E0,2.281055697E0
1.434617167E1,-1.757619523E0,2.759529108E-1,-1.367295367E0,2.243852271E0
1.435618767E1,-1.460169616E0,1.130001907E0,-1.380659616E0,2.305476219E0
1.436620267E1,-7.837231446E-1,2.049806351E0,-1.629858592E0,2.733563073E0
1.437621767E1,2.997433857E-1,2.374073635E0,-1.915690666E0,3.065280159E0
1.438623367E1,1.876189070E0,1.819089255E0,-1.575356695E0,3.051379992E0
1.439624867E1,3.419534744E0,5.722096932E-1,-6.083793998E-1,3.520052172E0
1.440626367E1,4.737016219E0,-6.485866088E-1,6.036851089E-1,4.819172435E0
1.441627967E1,5.436545232E0,-1.672394893E0,1.008924343E0,5.776751429E0
1.442629467E1,5.210583091E0,-2.485906897E0,1.035483566E0,5.865333364E0
1.443630967E1,4.247266884E0,-2.998086736E0,5.342074692E-1,5.226201075E0
1.444632567E1,2.940051074E0,-3.298703787E0,1.173161960E-1,4.420306559E0
1.445634067E1,1.663399244E0,-3.365045711E0,7.206693292E-2,3.754413846E0
1.446635567E1,5.652126957E-1,-2.899552966E0,-1.013471577E-1,2.955866039E0
1.447637067E1,-1.823769220E-1,-2.234571934E0,-1.749425527E-1,2.248817015E0
1.448638667E1,-4.248170279E-1,-1.327905598E0,-2.750346056E-1,1.421072419E0
1.449640167E1,-2.636247875E-1,-3.828487837E-1,-3.760857479E-1,5.979228291E-1
1.450641667E1,2.912593134E-2,2.611360663E-1,-2.910779035E-1,3.921309869E-1
1.451643267E1,4.386402842E-1,7.344225651E-1,-1.819755837E-1,8.745838531E-1
1.452644767E1,8.500193142E-1,9.537732589E-1,-1.278847459E-1,1.283966811E0
1.453646267E1,1.229107827E0,4.394328743E-1,3.059932736E-1,1.340686087E0
1.454647867E1,1.574599188E0,-1.536379302E-1,9.643312839E-1,1.852809230E0
1.455649367E1,1.348365006E0,-7.692146677E-1,1.419054919E0,2.103210940E0
1.456650867E1,8.705428219E-1,-1.316046860E0,1.450491597E0,2.143303529E0
1.457652467E1,4.405490347E-1,-1.588934661E0,1.540578918E0,2.256585963E0
1.458653967E1,7.658639207E-2,-1.499721937E0,1.587421986E0,2.185163592E0
1.459655467E1,-2.485394096E-1,-1.225455363E0,1.515886857E0,1.965051055E0
1.460657067E1,-4.523853341E-1,-9.522056204E-1,1.313981331E0,1.684605287E0
1.461658567E1,-5.222698668E-1,-7.762570542E-1,1.229527657E0,1.545017504E0
1.462660067E1,-4.595521932E-1,-4.471336573E-1,1.594712002E0,1.718785355E0
1.463661667E1,-3.145354709E-1,-1.420528418E-1,2.205827022E0,2.232663078E0
1.464663167E1,-1.486142948E-2,-1.830353916E-2,2.826914468E0,2.827012785E0
1.465664667E1,1.427454445E-1,6.807737768E-2,3.420377620E0,3.424031813E0
1.466666267E1,-1.238925594E-1,-5.371837020E-3,3.875212061E0,3.877195731E0
1.467667767E1,-7.246531103E-1,-2.570289820E-1,3.868480453E0,3.944150992E0
1.468669267E1,-9.648461312E-1,-4.590847814E-1,3.590494173E0,3.746109355E0
1.469670867E1,-7.886516165E-1,-4.640122300E-1,3.463367811E0,3.582205371E0
1.470672367E1,-1.288927766E0,-8.581888247E-1,3.160830535E0,3.519754610E0
1.471673867E1,-2.039605445E0,-7.714904040E-1,3.100121526E0,3.790242906E0
1.472675367E1,-2.799240473E0,-1.195334601E-1,3.411839516E0,4.414825518E0
1.473676967E1,-3.340625984E0,4.178449541E-1,3.200912321E0,4.645451115E0
1.474678467E1,-3.201092123E0,1.308089384E0,2.888558154E0,4.505758185E0
1.475679967E1,-2.346566579E0,2.123675396E0,1.900988281E0,3.691900370E0
1.476681567E1,-1.161879830E0,2.349769099E0,8.007986954E-1,2.740922857E0
1.477683067E1,1.551590102E-1,2.158565732E0,-2.247397801E-1,2.175773036E0
1.478684567E1,1.129886570E0,1.883891607E0,-1.154922155E0,2.481841339E0
1.479686167E1,1.529890354E0,1.292331723E0,-1.786874605E0,2.683953545E0
1.480687667E1,1.412235020E0,3.852496505E-1,-2.090628687E0,2.552166403E0
1.481689167E1,1.088889037E0,-3.159823644E-1,-2.286737868E0,2.552389913E0
1.482690767E1,5.570846274E-1,-7.043526739E-1,-2.946380977E0,3.080197532E0
1.483692267E1,-9.525669783E-2,-7.077937603E-1,-4.083240791E0,4.145226315E0
1.484693767E1,4.883441754E-1,-4.199604768E-1,-5.159304764E0,5.199353083E0
1.485695367E1,1.963706101E0,-3.855244696E-2,-5.488426992E0,5.829276009E0
1.486696867E1,2.653370861E0,5.181533539E-1,-4.932191892E0,5.624533463E0
1.487698367E1,3.248607474E0,1.401473511E0,-4.128280431E0,5.436936439E0
1.488699967E1,3.904570930E0,2.094610641E0,-3.504010638E0,5.648996233E0
1.489701467E1,4.544499274E0,3.322724149E0,-2.957902915E0,6.359414995E0
1.490702967E1,4.833728581E0,4.833168125E0,-1.919263169E0,7.099860367E0
1.491704567E1,4.666592646E0,5.860040351E0,-9.888482936E-1,7.556122073E0
1.492706067E1,3.031750910E0,4.672329934E0,-1.573298767E0,5.787698126E0
1.493707567E1,1.418045836E0,3.158405694E0,-2.424563173E0,4.226687486E0
1.494709167E1,5.803543530E-1,2.101167709E0,-2.616781032E0,3.405768619E0
1.495710667E1,6.053958580E-2,1.333572720E0,-2.449752978E0,2.789869333E0
1.496712167E1,-5.965070669E-1,2.493359174E0,-1.915832022E0,3.200480118E0
1.497713667E1,-2.071147226E0,1.910148529E0,-1.482919378E0,3.183923384E0
1.498715267E1,-2.658258841E0,2.392622173E-1,-1.176342772E0,2.916739411E0
1.499716767E1,-3.030814771E0,-4.301697153E-1,-9.044671977E-1,3.192012699E0
1.500718267E1,-3.496247290E0,-1.428749018E0,-1.528288948E0,4.074400076E0
1.501719867E1,-3.659493949E0,-2.246745252E0,-1.778478588E0,4.647875459E0
1.502721367E1,-3.375251441E0,-2.520240578E0,-1.291598482E0,4.405923456E0
1.503722867E1,-2.274794053E0,-2.486851223E0,-7.768018685E-2,3.371223991E0
1.504724467E1,-1.464348768E0,-2.628841499E0,5.911089174E-1,3.066681381E0
1.505725967E1,-8.937650388E-1,-2.787352499E0,9.018966155E-1,3.062934443E0
1.506727467E1,-6.218008062E-1,-3.101149174E0,1.411967948E0,3.463728616E0
1.507729067E1,-4.804662949E-1,-3.103758786E0,1.712831605E0,3.577423454E0
1.508730567E1,-4.677273316E-1,-2.906576641E0,1.707167115E0,3.403142105E0
1.509732067E1,-4.784411117E-1,-2.717085339E0,1.417308064E0,3.101648075E0
1.510733667E1,-5.998996580E-1,-2.541057250E0,9.971970212E-1,2.794861973E0
1.511735167E1,-7.566096056E-1,-2.388944274E0,8.005903152E-1,2.630676281E0
1.512736792E1,-8.276655550E-1,-2.332432689E0,7.962225182E-1,2.599854384E0
1.513738392E1,-1.043282582E0,-2.377808837E0,8.631599812E-1,2.736322087E0
1.514739892E1,-1.386732535E0,-2.413226007E0,1.100282264E0,2.992876199E0
1.515741392E1,-1.710510699E0,-2.408928888E0,1.545926635E0,3.334467634E0
1.516742992E1,-1.998122666E0,-2.248863698E0,1.965358962E0,3.593399222E0
1.517744492E1,-2.328081045E0,-2.095728629E0,2.178218808E0,3.815321351E0
1.518745992E1,-2.738905393E0,-2.149151714E0,2.243762587E0,4.141850600E0
1.519747592E1,-3.281042272E0,-2.432444050E0,2.309743884E0,4.692221143E0
1.520749092E1,-3.825915355E0,-2.571688474E0,2.461155049E0,5.225752968E0
1.521750592E1,-3.844701874E0,-2.059541380E0,1.908584837E0,4.760896898E0
1.522752192E1,-3.157349102E0,-4.085163063E-1,6.299907088E-1,3.245400934E0
1.523753692E1,-2.341395009E0,1.243135589E0,-1.313295307E0,2.958422087E0
1.524755192E1,-1.744837510E0,2.279555148E0,-3.435754920E0,4.477191249E0
1.525756792E1,-1.022104406E0,3.257349939E0,-4.750918851E0,5.850321014E0
1.526758292E1,1.212216536E0,4.357181382E0,-4.094469491E0,6.100752326E0
1.527759792E1,2.889724673E0,4.832520254E0,-1.523687335E0,5.833128130E0
1.528761392E1,2.368181396E0,3.203250915E0,1.858785417E0,4.395927977E0
1.529762892E1,1.280205475E0,1.784789488E0,4.570135807E0,5.070556268E0
1.530764392E1,-7.644795924E-1,1.007811472E0,5.594408945E0,5.735636360E0
1.531765892E1,-2.846603504E0,2.905387902E-1,5.893158395E0,6.551097631E0
1.532767492E1,-4.331786048E0,-5.223534089E-1,4.822325048E0,6.503233220E0
1.533768992E1,-5.207986343E0,-6.419628829E-1,2.234826872E0,5.703480450E0
1.534770492E1,-5.460582551E0,-3.349460542E-1,1.008995606E0,5.563112689E0
1.535772092E1,-4.165036321E0,3.506002200E-1,-4.403912330E-1,4.202902867E0
1.536773592E1,-1.287959614E0,1.623712145E0,-3.378738720E0,3.963730117E0
1.537775092E1,2.233862959E0,3.718511651E0,-5.570897291E0,7.060621024E0
1.538776692E1,5.127422821E0,6.615255615E0,-5.727642431E0,1.014189132E1
1.539778192E1,7.089313946E0,9.257063899E0,-3.240052121E0,1.210163386E1
1.540779692E1,6.998031893E0,7.117924957E0,1.042094428E-2,9.981854269E0
1.541781292E1,4.481684391E0,2.768072475E0,-6.205065250E-2,5.267975938E0
1.542782792E1,3.135324395E0,9.546404010E-1,-4.093846178E-1,3.302906769E0
1.543784292E1,1.561864245E0,-5.604842716E-1,-4.855947416E-1,1.728977961E0
1.544785892E1,-3.528174841E-1,-2.001442861E0,-1.060934011E0,2.292560725E0
1.545787392E1,-1.492958463E0,-2.815865276E0,-1.218170171E0,3.412031769E0
1.546788892E1,-1.948255418E0,-2.503204131E0,-1.015328068E0,3.330558688E0
1.547790492E1,-2.649142447E0,-1.977642354E0,-7.159737226E-1,3.382549831E0
1.548791992E1,-2.983763689E0,-1.320973139E0,-6.295800881E-1,3.323279536E0
1.549793492E1,-2.574947128E0,-5.519221938E-1,-6.292023580E-1,2.707557280E0
1.550795092E1,-1.522632936E0,2.733175707E-1,-9.447498357E-1,1.812640561E0
1.551796592E1,-2.473895273E-2,8.015047467E-1,-1.430461522E0,1.639890862E0
1.552798092E1,1.457660576E0,1.254318974E0,-1.469447393E0,2.420199596E0
1.553799692E1,2.953419563E0,1.524360934E0,-1.431340066E0,3.618714932E0
1.554801192E1,4.413184552E0,1.259256948E0,-1.201671814E0,4.744042696E0
1.555802692E1,5.607927707E0,6.271723509E-1,-2.886209035E-1,5.650265512E0
1.556804292E1,6.175185394E0,-2.953259057E-1,7.265622993E-1,6.224791146E0
1.557805792E1,5.530358545E0,-1.626970214E0,5.644726574E-1,5.792281682E0
1.558807292E1,4.064417142E0,-2.489978313E0,1.820283549E-1,4.769969919E0
1.559808892E1,2.413255389E0,-2.950275223E0,1.607854204E-1,3.814941338E0
1.560810392E1,9.719629236E-1,-3.088781728E0,-1.691004534E-1,3.242511288E0
1.561811892E1,8.742987078E-2,-2.975305399E0,-2.763499367E-1,2.989390487E0
1.562813492E1,-3.088854526E-1,-2.512725736E0,1.768572235E-1,2.537809947E0
1.563814992E1,-4.884463190E-1,-1.988760835E0,4.977091491E-1,2.107478081E0
1.564816492E1,-6.301794277E-1,-1.323716068E0,2.262730663E-1,1.483425037E0
1.565818092E1,-5.949269300E-1,-5.660607612E-1,4.774733976E-2,8.225829112E-1
1.566819592E1,-4.236782096E-1,3.257483840E-2,-1.843755734E-1,4.632048115E-1
1.567821092E1,-1.815662786E-2,2.151073694E-1,-1.449241170E-1,2.600073907E-1
1.568822692E1,5.051015646E-1,-1.205894673E-1,2.816884446E-1,5.907772761E-1
1.569824192E1,9.083339614E-1,-5.131539845E-1,1.033556178E0,1.468548933E0
1.570825692E1,1.080300647E0,-7.905874103E-1,1.727897834E0,2.185797078E0
1.571827192E1,8.455402739E-1,-9.918205065E-1,2.012801077E0,2.397918774E0
1.572828792E1,5.026199332E-1,-1.012743014E0,2.159281723E0,2.437370052E0
1.573830292E1,2.069294536E-1,-1.036198534E0,2.186169560E0,2.428140141E0
1.574831792E1,4.412367404E-2,-9.785882574E-1,2.124444305E0,2.339411353E0
1.575833392E1,-2.172066660E-1,-6.973827928E-1,2.260538249E0,2.375616693E0
1.576834892E1,-4.125934967E-1,-4.045448774E-1,2.391652704E0,2.460465934E0
1.577836392E1,-5.823219410E-1,-3.501336122E-1,2.645956592E0,2.731808682E0
1.578837992E1,-7.057634608E-1,-5.418983120E-1,2.748993302E0,2.889415169E0
1.579839492E1,-9.710628909E-1,-7.814107901E-1,2.693376926E0,2.967801413E0
1.580840992E1,-9.735775591E-1,-8.111210775E-1,2.652554297E0,2.939696407E0
1.581842592E1,-6.766802873E-1,-9.411742634E-1,2.747031269E0,2.981591186E0
1.582844092E1,-8.526739501E-1,-8.755690885E-1,3.054473190E0,3.289905859E0
1.583845592E1,-2.227900553E0,-2.556285739E-1,3.846744306E0,4.452676566E0
1.584847192E1,-4.094329158E0,3.044469774E-1,3.853649576E0,5.630882193E0
1.585848692E1,-5.301772758E0,9.713476503E-1,3.170609126E0,6.253404902E0
1.586850192E1,-4.727056949E0,1.786572888E0,2.531451737E0,5.652004775E0
1.587851792E1,-3.749637550E0,2.596905761E0,2.171897676E0,5.051815594E0
1.588853292E1,-2.538062891E0,3.274478188E0,1.017058551E0,4.265955782E0
1.589854792E1,-9.834452471E-1,3.751511582E0,-3.124445066E-1,3.890838634E0
1.590856392E1,7.105813473E-1,3.559361551E0,-1.140314933E0,3.804510303E0
1.591857892E1,1.191280215E0,2.438614032E0,-1.016076511E0,2.897999038E0
1.592859392E1,9.013363791E-1,1.176227655E0,-6.694301784E-1,1.626055204E0
1.593860992E1,5.887687887E-1,2.122346324E-1,-2.858636490E-1,6.880481462E-1
1.594862492E1,1.570589899E-1,-5.912061274E-1,-2.523813227E-1,6.617314738E-1
1.595863992E1,-1.885979209E-1,-1.261545548E0,-6.534816054E-1,1.433214762E0
1.596865592E1,-3.948807090E-1,-1.697470677E0,-1.446145654E0,2.264657751E0
1.597867092E1,1.839804113E-1,-1.817462559E0,-2.569809179E0,3.152925334E0
1.598868592E1,1.461356309E0,-1.614278832E0,-3.690702878E0,4.285177493E0
1.599870192E1,2.419933494E0,-1.335552587E0,-4.077175474E0,4.925762750E0
1.600871692E1,3.617068892E0,-3.212577224E-1,-4.260045097E0,5.597711864E0
1.601873192E1,4.452693896E0,7.829012454E-1,-4.199693645E0,6.170643727E0
1.602874792E1,5.164779512E0,2.204145362E0,-3.802288803E0,6.781637290E0
1.603876292E1,5.461934427E0,3.799390923E0,-3.048005000E0,7.318362764E0
1.604877792E1,5.213875074E0,5.129957589E0,-2.085321754E0,7.605887520E0
1.605879392E1,4.391777603E0,5.837235040E0,-1.647692746E0,7.488385327E0
1.606880892E1,2.713928135E0,5.462789875E0,-1.851531361E0,6.374609597E0
1.607882392E1,1.376905265E0,4.598732200E0,-1.850688193E0,5.144827766E0
1.608883992E1,5.630709702E-1,3.388464979E0,-1.744443115E0,3.852509002E0
1.609885492E1,-2.861135078E-1,2.387023464E0,-2.290590599E0,3.320624527E0
1.610886992E1,-1.916302723E0,2.012998129E0,-2.318032751E0,3.619068033E0
1.611888592E1,-3.134220733E0,7.663723361E-1,-2.119342024E0,3.860346717E0
1.612890025E1,-3.374869618E0,-3.139142042E-1,-1.227018324E0,3.604699853E0
1.613891525E1,-3.855317202E0,-6.632701367E-1,-3.297104573E-1,3.925825644E0
1.614893125E1,-4.491738093E0,-1.874163594E0,-2.626580966E-1,4.874134749E0
1.615894625E1,-4.391731702E0,-2.560254244E0,-4.707512557E-1,5.105273341E0
1.616896125E1,-3.936371890E0,-2.500020322E0,-7.983590177E-1,4.731014942E0
1.617897725E1,-2.667268231E0,-2.891185600E0,-4.873467866E-1,3.963682742E0
1.618899225E1,-1.536281507E0,-3.056443117E0,2.512501057E-1,3.430033821E0
1.619900725E1,-7.395160747E-1,-2.819333845E0,7.108858410E-1,3.000147668E0
1.620902325E1,-3.465512059E-1,-2.671905658E0,8.242667878E-1,2.817550943E0
1.621903825E1,-2.787695146E-1,-2.665316430E0,5.622237452E-1,2.738196424E0
1.622905325E1,-1.526079157E-1,-2.723744148E0,1.894519068E-1,2.734586511E0
1.623906825E1,3.099476724E-1,-2.485399359E0,8.280475974E-2,2.506019585E0
1.624908425E1,7.633362425E-1,-2.047078625E0,5.896905291E-1,2.262951178E0
1.625909925E1,1.070163037E0,-1.851052474E0,1.272059280E0,2.487926647E0
1.626911425E1,1.017391623E0,-2.105002313E0,1.660640820E0,2.867725298E0
1.627913025E1,4.795072053E-1,-2.420675944E0,1.687101810E0,2.989299534E0
1.628914525E1,-1.606669777E-1,-2.417024358E0,1.857800600E0,3.052743634E0
1.629916025E1,-7.669569115E-1,-2.217028533E0,2.123512259E0,3.164291821E0
1.630917625E1,-1.400535326E0,-2.126173911E0,2.115648923E0,3.310299845E0
1.631919125E1,-1.984271050E0,-2.171138415E0,1.913786666E0,3.509095756E0
1.632920625E1,-2.404937286E0,-2.238207732E0,1.606784456E0,3.657192023E0
1.633922225E1,-2.807231570E0,-2.679585391E0,1.332533669E0,4.103214951E0
1.634923725E1,-3.394940186E0,-4.017003824E0,1.428229201E0,5.449933691E0
1.635925225E1,-3.235763188E0,-3.755963652E0,1.786505646E0,5.269632699E0
1.636926825E1,-2.431904498E0,-2.015162768E0,1.490560520E0,3.492393325E0
1.637928325E1,-2.132905957E0,-2.208879268E-1,-1.180061674E0,2.447575300E0
1.638929825E1,-1.722925654E0,1.025437319E0,-4.236384923E0,4.686891478E0
1.639931425E1,-8.336593165E-1,1.421885557E0,-5.950248270E0,6.174317846E0
1.640932925E1,1.117248106E0,3.053345847E0,-5.710901853E0,6.571572427E0
1.641934425E1,3.025042400E0,5.337939541E0,-3.845062355E0,7.240786185E0
1.642936025E1,3.594506240E0,6.207904658E0,-1.639874653E-1,7.175336037E0
1.643937525E1,3.978564228E0,5.777503393E0,5.705969142E0,9.042488741E0
1.644939025E1,2.557216616E0,3.901904892E0,8.672434720E0,9.847605931E0
1.645940625E1,2.242041752E-3,1.624635420E0,7.065909880E0,7.250277768E0
1.646942125E1,-2.589188021E0,3.528268397E-1,5.074517798E0,5.707811514E0
1.647943625E1,-4.670646520E0,3.303004414E-1,3.129443851E0,5.631825291E0
1.648945225E1,-5.796122682E0,6.200323159E-1,6.516721845E-1,5.865505507E0
1.649946725E1,-5.037904288E0,2.448042083E-1,-3.603520235E-2,5.043977325E0
1.650948225E1,-2.906909932E0,-8.918699563E-2,-6.640203345E-1,2.983119622E0
1.651949825E1,3.123008478E-1,2.588726091E-1,-3.213428578E0,3.238930391E0
