"Time (s)","Linear Acceleration x (m/s^2)","Linear Acceleration y (m/s^2)","Linear Acceleration z (m/s^2)","Absolute acceleration (m/s^2)"
5.627333332E-3,2.010623574E-2,-1.629735947E-1,-5.872890776E-1,6.098139995E-1
1.564333333E-2,-1.617266759E-1,-1.657989693E-1,-7.857967865E-1,8.192199983E-1
2.565833332E-2,-2.681457084E-1,-1.175255263E-1,-5.477227235E-1,6.210592179E-1
3.567433333E-2,-4.559340093E-1,-1.967968136E-1,2.060687435E-1,5.376514983E-1
4.568933333E-2,-4.283006528E-1,-2.566471589E-1,6.028210366E-1,7.827531000E-1
5.570433332E-2,-1.390710359E-1,-4.956392348E-2,6.972138083E-1,7.126741401E-1
6.572033332E-2,1.762909389E-1,1.122367197E-1,6.888072664E-1,7.198131887E-1
7.573533333E-2,4.603115273E-1,3.916763252E-1,5.053935599E-1,7.878576624E-1
8.575033332E-2,5.734545654E-1,5.552194387E-1,-7.653245151E-2,8.018578302E-1
9.576633332E-2,4.957783985E-1,4.643981463E-1,-8.204538184E-1,1.065179012E0
1.057813333E-1,2.461794734E-1,2.413198525E-1,-1.414226289E0,1.455635806E0
1.157973333E-1,-1.495364007E-1,-5.775411844E-2,-1.311887151E0,1.321644646E0
1.258123333E-1,-1.777755287E-1,1.180710715E-1,-5.972170651E-1,6.342027589E-1
1.358273333E-1,1.034743747E-1,3.793270057E-1,1.235124904E0,1.296198076E0
1.458433333E-1,7.617404643E-1,2.808797747E-1,2.242127706E0,2.384591921E0
1.558583333E-1,8.899447605E-1,-7.447481632E-2,9.367321336E-1,1.294223808E0
1.658743333E-1,8.221155971E-1,-1.864928502E-1,4.816977185E-1,9.709203522E-1
1.758893333E-1,1.113506911E0,-6.328499973E-2,1.220962948E-1,1.121967084E0
1.859043333E-1,1.401332594E0,2.057284355E-2,-2.520073932E-1,1.423960676E0
1.959203333E-1,1.768939148E0,3.814051062E-1,-1.009460387E0,2.072106618E0
2.059353333E-1,2.320019343E0,9.806108093E-1,-1.752173134E0,3.068256508E0
2.159503333E-1,2.157736596E0,3.899742007E-1,-1.695010754E0,2.771456035E0
2.259663333E-1,1.766583889E0,-2.439166009E-2,-1.868597045E0,2.571588713E0
2.359813333E-1,9.906004849E-1,6.513669598E-1,-1.747129326E0,2.111404537E0
2.459973333E-1,7.894568512E-1,1.581437945E-1,-1.594415256E0,1.786172329E0
2.560123333E-1,1.125588721E0,3.754643351E-1,-1.296599606E0,1.757581854E0
2.660273333E-1,1.560400541E0,5.340279597E-1,-8.744300508E-1,1.866725374E0
2.760433333E-1,1.915682918E0,5.061595452E-1,-3.383386087E-1,2.010102371E0
2.860583333E-1,2.172701814E0,5.711279583E-1,2.751956964E-1,2.263305766E0
2.960733333E-1,2.268020931E0,5.609853780E-1,6.595858061E-1,2.427689637E0
3.060893333E-1,2.152839261E0,3.065724403E-1,8.817934495E-1,2.346542826E0
3.161043333E-1,1.636241120E0,-5.506100786E-1,9.268702197E-1,1.959475661E0
3.261203333E-1,-4.385555727E-1,-3.009466587E0,-7.248208523E-2,3.042116661E0
3.361353333E-1,2.470518780E0,1.136532662E0,-1.746297267E0,3.231829772E0
3.461503333E-1,3.162402851E0,-6.958163238E-1,-3.986739221E0,5.136053131E0
3.561663333E-1,-5.614594410E-1,-4.434019643E0,-4.189159302E0,6.125750775E0
3.661813333E-1,-2.395268038E0,-5.470796467E0,-2.450265194E0,6.455286398E0
3.761963333E-1,-2.866082334E0,-2.664705981E0,5.708047242E0,6.920757851E0
3.862123333E-1,-3.101702028E0,5.724517679E-1,5.210611158E0,6.090872281E0
3.962273333E-1,-2.654279226E0,9.002566177E-1,2.670851405E0,3.871576864E0
4.062433333E-1,-1.995537758E0,1.817437416E-1,3.210343587E-1,2.029350830E0
4.162583333E-1,-1.224538374E0,2.467981088E-1,-7.876006526E-1,1.476725541E0
4.262733333E-1,-1.219587975E0,1.455722809E-2,-5.022477579E-1,1.319037358E0
4.362893333E-1,-1.399792875E0,-2.971151537E-1,-4.169941843E-2,1.431585258E0
4.463043333E-1,-7.294202721E-1,-3.756099308E-1,-8.877008915E-2,8.252374702E-1
4.563193333E-1,5.234110241E-1,-1.300105011E-1,-4.715083605E-1,7.163671995E-1
4.663353333E-1,1.275101148E0,5.517344981E-1,-7.839625150E-1,1.595271487E0
4.763503333E-1,1.890843069E0,4.982365680E-1,-7.773493141E-1,2.104233624E0
4.863663333E-1,1.599759903E0,4.009312981E-1,-2.122205991E-1,1.662833496E0
4.963813333E-1,8.078258792E-1,3.231995827E-1,1.009465064E0,1.332689138E0
5.063963333E-1,2.251996636E-1,1.003610247E-1,2.865915104E0,2.876500757E0
5.164123333E-1,1.274591271E0,-2.496831250E-1,2.550353739E0,2.862032278E0
5.264273333E-1,1.829688503E0,-1.000230557E-1,1.234448966E0,2.209440852E0
5.364423333E-1,2.184571223E0,8.642243207E-1,2.753176108E0,3.619283601E0
5.464583333E-1,2.503252955E0,1.287284699E0,2.227773961E0,3.589756826E0
5.564733333E-1,1.570780518E0,9.472840190E-2,-5.231673414E-1,1.658321131E0
5.664893333E-1,3.313757443E-1,3.249555016E-1,-8.546430731E-1,9.725331585E-1
5.765043333E-1,-1.431300451E0,-1.003048038E0,1.712861719E0,2.447166037E0
5.865193333E-1,-3.078008233E0,-3.307609973E0,4.848666170E0,6.627517035E0
5.965353333E-1,-3.713862530E0,-5.924947368E0,5.949902700E0,9.181455132E0
6.065503333E-1,-4.992721099E0,-6.650779788E0,-3.562825441E-1,8.323885692E0
6.165653333E-1,-6.001075192E0,-6.016208371E0,-3.873641206E0,9.338777373E0
6.265813333E-1,-5.265921140E0,-6.234481423E0,1.396251363E0,8.279384152E0
6.365963333E-1,-4.007406204E0,-6.424202521E0,1.842372867E0,7.792561857E0
6.466113333E-1,-2.959720230E0,-4.769298989E0,-8.676917195E-2,5.613705155E0
6.566273333E-1,-2.877466863E0,-2.191104902E0,-2.221809801E0,4.244666657E0
6.666423333E-1,-2.903359503E0,-1.822992271E-1,-2.938684872E0,4.135045125E0
6.766583333E-1,-2.096802177E0,1.500454593E0,-3.569133418E0,4.403028130E0
6.866733333E-1,-1.572325060E0,3.709700482E0,-5.935946565E0,7.174227860E0
6.966883333E-1,2.216761315E-1,5.066585466E0,-7.232449107E0,8.833331686E0
7.067043333E-1,1.178362766E0,4.041507166E0,-6.316579254E0,7.590882192E0
7.167193333E-1,8.257397014E-1,1.950667979E0,-2.020931046E0,2.927646480E0
7.267343333E-1,1.739717395E0,2.381734657E-1,1.178847792E0,2.114952797E0
7.367503333E-1,3.290117151E0,-7.049373955E-1,3.265547150E-1,3.380598405E0
7.467655833E-1,4.111528743E0,-9.748173881E-1,6.856445074E-2,4.226066567E0
7.567805833E-1,4.987059824E0,-1.285851254E0,3.593891698E-1,5.162687257E0
7.667965833E-1,5.904838793E0,-1.906181778E0,8.775384307E-1,6.266635767E0
7.768115833E-1,6.207014712E0,-2.834681616E0,1.857603110E0,7.071996947E0
7.868275833E-1,5.540874177E0,-3.717310048E0,3.507033648E0,7.537835608E0
7.968425833E-1,4.621234917E0,-3.955429135E0,4.850181769E0,7.779813300E0
8.068575833E-1,3.525269945E0,-3.516424862E0,5.151654267E0,7.164657262E0
8.168735833E-1,2.170015457E0,-3.128403046E0,5.505066413E0,6.693401894E0
8.268885833E-1,6.760416251E-1,-2.353283275E0,5.714230673E0,6.216703840E0
8.369035833E-1,-7.672064415E-1,-9.539153463E-1,5.698136796E0,5.828149206E0
8.469195833E-1,-2.472095774E0,3.764706409E-1,3.698435236E0,4.464460869E0
8.569345833E-1,-2.863785840E0,2.809972453E0,-2.594973841E-1,4.020516561E0
8.669505833E-1,-2.946877406E0,5.487482666E0,-3.456758411E0,7.123603805E0
8.769655833E-1,-4.500963538E0,5.244256037E0,-1.302213810E0,7.032542567E0
8.869805833E-1,-6.046724989E0,4.661303839E0,2.494142408E0,8.031897841E0
8.969965833E-1,-5.483189056E0,3.998509666E0,3.484593204E0,7.628619244E0
9.070115833E-1,-4.374796704E0,3.480263341E0,2.928663037E0,6.310954469E0
9.170265833E-1,-3.934071595E0,3.004512826E0,2.890464346E0,5.732259657E0
9.270425833E-1,-3.765181495E0,1.915286477E0,1.700066257E0,4.553585319E0
9.370575833E-1,-3.172558295E0,-9.426319742E-1,1.009228837E0,3.460090175E0
9.470725833E-1,-3.050646772E0,-3.359327134E0,-3.895473540E-2,4.537955706E0
9.570885833E-1,-3.296896997E0,-4.393208417E0,7.760512322E-1,5.547257477E0
9.671035833E-1,-4.703345904E0,-6.671501151E0,4.285626081E-1,8.173986556E0
9.771195833E-1,-4.505039047E0,-4.560817684E0,-4.221528903E0,7.675789278E0
9.871345833E-1,-1.977379814E0,-1.643661675E0,-7.981278627E0,8.385252719E0
9.971495833E-1,-4.557378352E-2,-3.032050288E-1,-5.059481099E0,5.068763088E0
1.007165583E0,1.005975885E0,-1.693081173E0,2.123445600E-2,1.969508121E0
1.017180583E0,2.238868760E0,-2.057933396E0,7.606993675E-1,3.134690849E0
1.027195583E0,2.701465379E0,-3.425521123E0,-1.088073277E-1,4.363937350E0
1.037211583E0,-3.329460141E-1,-3.796716991E0,2.776469661E0,4.715368144E0
1.047226583E0,-1.711114863E0,-2.106709700E0,3.600739957E0,4.509042922E0
1.057241583E0,-2.327740737E0,-3.284030199E-2,2.134282537E0,3.158261765E0
1.067257583E0,-1.499494919E0,1.970697032E0,2.352274338E0,3.415454050E0
1.077272583E0,1.502001474E0,2.618649802E0,3.434382286E0,4.572561307E0
1.087288583E0,4.952536694E0,1.396242592E0,3.781672690E0,6.385778059E0
1.097303583E0,5.080680764E0,5.065150559E-1,1.313505368E0,5.272112563E0
1.107318583E0,2.270042021E0,-1.412430024E-1,-2.863498449E-1,2.292386659E0
1.117334583E0,1.221670461E-1,-7.001122731E-1,1.689684525E-1,7.305014169E-1
1.127349583E0,-6.477390549E-1,-9.752500820E-1,1.410479393E0,1.833065935E0
1.137364583E0,-1.053479396E0,-9.665552723E-1,3.114567949E0,3.427036831E0
1.147380583E0,-7.621360284E-1,-4.823011512E-1,3.090622139E0,3.219535826E0
1.157395583E0,9.395686179E-2,2.707178986E-1,2.325950758E0,2.343536431E0
1.167410583E0,4.931413043E-1,-3.159542978E-1,2.311285357E0,2.384335434E0
1.177426583E0,1.098359699E0,-6.038197410E-1,1.712522872E0,2.122198600E0
1.187441583E0,1.498833453E0,-6.324740213E-1,5.627161539E-1,1.721387399E0
1.197456583E0,1.121076132E0,-9.269205058E-1,-3.022080785E-1,1.485706243E0
1.207472583E0,4.120122103E-1,-1.513975695E0,-1.366300901E0,2.080541905E0
1.217487583E0,1.054869863E-1,-1.975152025E0,-9.822690797E-1,2.208439624E0
1.227503583E0,2.333897124E-1,-1.762679996E0,5.317509077E-1,1.855874606E0
1.237518583E0,7.751513457E-1,-1.481918920E0,1.376029937E0,2.165733520E0
1.247533583E0,1.193106812E0,-1.452980465E0,1.610039601E0,2.475254252E0
1.257549583E0,1.176720283E0,-1.126672502E0,1.200832154E0,2.023872380E0
1.267564583E0,1.219586075E0,-8.826260930E-1,9.112566921E-1,1.759774921E0
1.277579583E0,1.438175315E0,-3.613801467E-1,3.025279212E-1,1.513428885E0
1.287595583E0,1.092393054E0,-7.350008547E-2,5.716575699E-1,1.235118304E0
1.297610583E0,7.193675928E-1,-3.008462620E-1,7.238633707E-1,1.063943789E0
1.307625583E0,8.034230720E-1,-3.066759360E-1,9.832657376E-1,1.306273430E0
1.317641583E0,1.038418722E0,-1.537174523E-1,2.255596182E0,2.487902055E0
1.327656583E0,9.681879611E-1,7.531184524E-1,2.447782759E0,2.737921797E0
1.337671583E0,-6.110164940E-2,2.842770070E0,2.036430845E0,3.497445592E0
1.347687583E0,-1.233079548E0,3.258362092E0,3.889699414E-1,3.505525112E0
1.357702583E0,-2.009054035E0,2.401414631E0,-4.276947351E-1,3.160065369E0
1.367717583E0,-2.021174583E0,3.162681763E0,-5.242110693E-1,3.789788896E0
1.377733583E0,-1.141275485E0,2.595016526E0,-8.925916488E-1,2.972093598E0
1.387748583E0,3.435090092E-1,2.218658736E0,-1.801051764E0,2.878234265E0
1.397764583E0,1.215911830E0,1.553736176E0,-1.717474587E0,2.615770755E0
1.407779583E0,1.289324939E0,1.039984607E0,-3.295341638E-1,1.688940361E0
1.417794583E0,1.605658867E0,4.669060171E-1,1.001747324E0,1.949266356E0
1.427810583E0,1.554682256E0,4.487691236E-1,3.982826556E-1,1.666451235E0
1.437825583E0,7.302518924E-1,-3.199695808E-1,-3.891036965E-1,8.871584106E-1
1.447840583E0,4.456774083E-1,-9.444294083E-1,-5.764728981E-1,1.192852154E0
1.457856583E0,1.074934584E-1,-1.784290720E0,-7.577010615E-1,1.941483741E0
1.467871583E0,-7.359437183E-1,-2.896007799E0,-1.678497778E0,3.427218861E0
1.477886583E0,-1.349426860E0,-9.323326886E-1,-1.940983236E0,2.541183389E0
1.487902583E0,-8.753278908E-1,-4.601880341E0,-1.821007726E0,5.025890043E0
1.497917583E0,-1.020349656E0,-5.246625913E0,-2.305142564E0,5.820814302E0
1.507932583E0,-2.448135054E0,-1.228934457E0,-2.833051997E0,3.940790372E0
1.517948583E0,-4.966597493E0,-4.601963956E0,-6.725702794E-1,6.804227634E0
1.527963583E0,-4.160624597E0,-1.248263597E-2,3.735022434E0,5.591184618E0
1.537978583E0,-2.489449140E0,2.241671623E0,3.416052142E0,4.784543962E0
1.547994583E0,-1.270992017E0,1.410278249E0,4.133478606E0,4.548620761E0
1.558009583E0,-1.698703855E-1,-5.373263741E-1,3.728772930E0,3.771116962E0
1.568024583E0,9.546988732E-1,-2.060020852E0,3.131902020E0,3.868326009E0
1.578040583E0,1.623854525E0,-2.367180938E0,2.589080433E0,3.865719415E0
1.588055583E0,2.227736246E0,-1.631794751E0,1.755710700E0,3.272320729E0
1.598071583E0,2.453822055E0,-3.598452526E-1,1.097956095E0,2.712238720E0
1.608086583E0,2.597256594E0,9.537767673E-1,-9.733848202E-1,2.933071760E0
1.618101583E0,2.120966673E0,1.199769714E0,-3.671794152E0,4.406815096E0
1.628117583E0,2.268100161E0,6.050236827E-1,-4.014924554E0,4.650801132E0
1.638132583E0,2.878232263E0,2.364953148E-1,-2.744529830E0,3.984042543E0
1.648147583E0,3.286093681E0,-7.786912501E-2,-2.470597717E0,4.111973780E0
1.658163583E0,1.881366487E0,-1.367522238E0,-9.157863108E-1,2.499664277E0
1.668178583E0,6.001433042E-1,-2.439352536E0,-4.741039761E-1,2.556440369E0
1.678193583E0,-3.817097461E-1,-3.043282789E0,1.208977617E-2,3.067151549E0
1.688209583E0,-9.448194176E-1,-2.484621679E0,2.699630962E-1,2.671873630E0
1.698224583E0,-1.664947587E0,-1.368277699E0,2.237758082E0,3.106733906E0
1.708239583E0,-2.412776648E0,-1.486566871E-1,3.729230767E0,4.444181823E0
1.718255583E0,-3.229665712E0,7.686112350E-1,2.688893573E0,4.272195277E0
1.728270583E0,-3.666251577E0,-1.157672685E0,1.317512757E0,4.064166155E0
1.738285583E0,-4.123417594E0,-1.534074329E0,-3.477181639E-1,4.413260090E0
1.748301125E0,-5.705689645E0,-3.830601021E0,-1.126401776E0,6.963991633E0
1.758316125E0,-5.698085341E0,-4.947225083E0,3.100427993E-1,7.552439282E0
1.768331125E0,-4.913961443E0,-3.207911730E0,7.983957821E-1,5.922427759E0
1.778347125E0,-3.474189253E0,-1.897610344E0,1.270581835E0,4.157558681E0
1.788362125E0,-2.416891626E0,-1.301559214E0,1.174953547E0,2.985956690E0
1.798377125E0,-2.820144561E0,-1.562787666E0,2.086591769E0,3.840492917E0
1.808393125E0,-2.332535015E0,-1.900930978E0,3.552978730E0,4.655954901E0
1.818408125E0,-8.280461356E-1,-8.971932614E-1,3.874719433E0,4.062519764E0
1.828423125E0,-1.628180587E-1,-6.756843603E-1,2.721494139E0,2.808841296E0
1.838439125E0,1.207765490E0,-3.042791623E-1,3.195140827E0,3.429315994E0
1.848454125E0,-7.194713516E0,-8.436421216E-1,2.281132143E0,7.594682249E0
1.858470125E0,-7.179822412E0,1.740014434E-2,-6.400853419E-1,7.208318936E0
1.868485125E0,-6.885177122E0,1.431997731E0,-1.168137886E0,7.128872816E0
1.878500125E0,-5.177276766E0,1.580800014E0,-1.078355132E0,5.519599006E0
1.888516125E0,-4.489802665E0,1.337320785E0,-1.928673531E0,5.066215199E0
1.898531125E0,-5.241759861E0,2.148125528E0,-9.861350394E-1,5.750039307E0
1.908546125E0,-5.958761231E0,1.743768346E0,-6.242816336E-1,6.239975242E0
1.918562125E0,-5.137436178E0,1.061377230E0,-1.525188900E0,5.463146830E0
1.928577125E0,-7.642603949E-1,2.960818337E0,-6.253037269E-1,3.121144650E0
1.938592125E0,3.098848879E0,5.570677435E0,-1.578675867E0,6.567155317E0
1.948608125E0,5.704581013E0,5.907261879E0,-1.980379436E0,8.447478331E0
1.958623125E0,5.264981493E0,5.490979886E0,-3.333719838E0,8.305695527E0
1.968638125E0,4.382103969E0,5.376869134E0,-4.214167843E0,8.116204007E0
1.978654125E0,3.361471600E0,3.789729568E0,-4.272057617E0,6.626614354E0
1.988669125E0,2.476931714E0,2.177569767E0,-3.402375505E0,4.738476536E0
1.998684125E0,5.235315863E-1,1.460258494E0,-1.998996824E0,2.530302056E0
2.008700125E0,-9.920894784E-1,1.467706093E0,-1.822050869E-1,1.780899043E0
2.018715125E0,-9.843845292E-1,1.682466137E0,-1.295873089E-1,1.953585953E0
2.028730125E0,7.023096567E-1,1.891716936E0,2.148057847E0,2.947199405E0
2.038746125E0,1.230672542E0,1.980520354E0,1.693498810E0,2.881831709E0
2.048761125E0,1.674831136E0,9.030621117E-1,-8.730805135E-1,2.093525757E0
2.058776125E0,1.233433889E0,-6.398672408E-1,-1.359954918E0,1.944290777E0
2.068792125E0,5.436153468E-1,-3.712486680E0,-5.632071738E-1,3.794110873E0
2.078807125E0,-6.815084794E-1,-6.206470921E0,3.025486788E-1,6.251101567E0
2.088822125E0,-9.152649584E-1,-4.314929402E0,1.927637697E0,4.813742076E0
2.098838125E0,-6.435672127E-2,1.542937539E0,3.218177395E0,3.569518704E0
2.108853125E0,1.206165691E0,3.180730948E0,6.479755747E-1,3.462911692E0
2.118868125E0,1.532139193E0,1.767853028E0,-1.061742388E0,2.569056584E0
2.128884125E0,6.057348503E-1,-1.820211335E0,2.283645568E0,2.982468960E0
2.138899125E0,1.513382202E-1,-3.450464176E0,3.667428621E0,5.037721606E0
2.148914125E0,-1.070160040E0,-9.225725162E-1,-4.048684331E0,4.288149644E0
2.158930125E0,1.120011500E0,4.466705579E-1,-1.082264507E0,1.620258255E0
2.168945125E0,6.069611576E0,2.535307683E0,6.525202646E0,9.265324566E0
2.178960125E0,4.226702519E0,3.979264140E-1,3.930150452E-1,4.263545525E0
2.188976125E0,2.294059605E0,-2.264181649E0,-2.022809464E0,3.805389092E0
2.198991125E0,1.414396150E-1,-6.826335422E0,-1.961611482E0,7.103997471E0
2.209006125E0,-1.067065255E0,-8.268894979E0,1.269357720E0,8.433535525E0
2.219022125E0,-9.913617924E-2,-6.417240826E0,1.007190790E0,6.496556094E0
2.229037125E0,2.796642555E0,-3.479513143E0,6.146099004E-1,4.506214223E0
2.239052125E0,4.791779194E0,-1.302454423E0,1.420384284E0,5.164787206E0
2.249068125E0,3.750675430E0,1.475486398E-2,6.584055457E-1,3.808054851E0
2.259083125E0,-1.220333641E0,-1.635667362E0,6.999675545E-1,2.157446753E0
2.269098125E0,-4.874018236E0,-1.426232961E0,4.286921239E-1,5.096466536E0
2.279114125E0,-5.023625972E0,4.970805734E-1,-6.838669538E-2,5.048621965E0
2.289129125E0,-4.474285909E0,1.911850653E0,7.186244117E-1,4.918417262E0
2.299144125E0,-1.922945160E0,2.744839733E0,8.977873385E-1,3.469565586E0
2.309160125E0,3.414627761E-1,2.260061116E0,1.888699772E0,2.965073339E0
2.319175125E0,1.327508865E0,2.013971105E0,3.046583835E0,3.885876022E0
2.329190125E0,1.008976530E0,1.370330656E0,4.345571151E0,4.666886368E0
2.339206125E0,6.340565702E-1,1.787306714E-1,3.446327856E0,3.508724565E0
2.349221125E0,9.001442780E-1,-3.943812472E-1,1.572214694E0,1.854091511E0
2.359236125E0,1.053263999E0,-8.325745118E-1,1.056644201E0,1.708520511E0
2.369252125E0,9.626527675E-1,-1.070609398E0,8.096149810E-1,1.651781236E0
2.379267125E0,1.316841351E0,-9.859276825E-1,1.255272947E-1,1.649812607E0
2.389282125E0,7.698649511E-1,-9.554455626E-1,9.874049816E-1,1.574972020E0
2.399298125E0,-5.718010459E-1,-4.459823406E-1,2.326151318E0,2.436562463E0
2.409313125E0,2.208107436E-1,7.273199522E-1,2.416375902E0,2.533105642E0
2.419328125E0,-2.373428322E-1,1.677698318E0,1.622092174E0,2.345673951E0
2.429344125E0,-1.438316525E0,1.902939497E0,9.580966902E-1,2.570580172E0
2.439359125E0,-3.149279068E0,1.165193374E0,-4.981418431E-1,3.394669283E0
2.449374125E0,-3.013356447E0,1.388472227E0,-2.591536263E0,4.210015725E0
2.459390125E0,-1.432155899E0,1.515456795E0,-2.728847890E0,3.434281675E0
2.469405125E0,-6.153457725E-1,8.895392561E-1,-3.162147328E0,3.342021279E0
2.479420125E0,-8.431848693E-1,6.748827070E-1,-4.067136974E0,4.208091082E0
2.489436125E0,-2.606431460E-1,9.206335795E-1,-3.721628802E0,3.842658191E0
2.499451125E0,1.762181411E-1,1.222310731E0,-5.037503462E-1,1.333739393E0
2.509466125E0,-2.800816115E-1,4.463056916E-1,4.673704322E-1,7.043220856E-1
2.519482125E0,-4.852648124E-1,-8.331112862E-2,-3.958427002E0,3.988930560E0
2.529497125E0,2.852009127E-2,-4.386271280E-1,-3.971992543E0,3.996239722E0
2.539512125E0,1.034318947E0,-1.123688668E0,-1.976375263E0,2.497709168E0
2.549528125E0,2.012122508E0,-8.789470249E-1,-7.328071256E-1,2.314776694E0
2.559543125E0,2.213743567E0,1.032214242E0,6.062627077E-1,2.516680610E0
2.569558125E0,2.030394472E0,3.467086641E0,1.219011001E0,4.198711625E0
2.579574125E0,1.276102484E0,4.709513547E0,5.692979260E-1,4.912438858E0
2.589589125E0,-7.619823197E-1,3.442662236E0,-5.683607635E-1,3.571494685E0
2.599604125E0,-3.858763551E0,-9.784204423E-1,-2.305606102E0,4.600345878E0
2.609620125E0,-3.968354113E0,-7.917953866E0,-1.073718217E0,8.921586103E0
2.619635125E0,-1.869390512E0,-9.700444813E0,3.982418128E0,1.065142735E1
2.629650125E0,-3.044370956E0,-3.247510829E0,1.408821269E0,4.668971886E0
2.639666125E0,-3.604476328E0,2.795369616E0,-1.361800153E0,4.760340381E0
2.649681125E0,-2.389983032E0,2.910708284E0,-1.341133754E0,3.997859597E0
2.659696125E0,-8.912209153E-1,-4.097214174E-1,-2.691672170E-1,1.017151587E0
2.669712125E0,4.574984318E-1,-2.422473963E0,2.496435101E-1,2.477903710E0
2.679727125E0,1.376802647E0,-1.856842972E0,-2.330232382E-2,2.311708102E0
2.689742125E0,1.840054154E0,-1.014714695E0,-5.167769194E-2,2.101931442E0
2.699758125E0,1.640890095E0,-2.104767839E0,-1.963613422E-1,2.676027978E0
2.709773125E0,8.793121836E-1,-2.840254013E0,1.158612625E-1,2.975509470E0
2.719788125E0,1.637134502E-2,-2.093962185E0,-1.416299419E-1,2.098810304E0
2.729804125E0,-4.621738654E-1,-1.556173296E0,-2.676679909E-1,1.645273887E0
2.739819125E0,-3.255560106E-1,-1.783104905E0,5.116500807E-1,1.883410636E0
2.749834458E0,1.856783330E-2,-1.768610242E0,1.599006490E0,2.384354987E0
2.759850458E0,3.520559208E-1,-1.355054805E0,2.251196737E0,2.651038221E0
2.769865458E0,4.279015072E-1,-1.612183190E0,2.506938747E0,3.011142013E0
2.779880458E0,2.251191913E-1,-2.043882537E0,2.374906133E0,3.141387212E0
2.789895458E0,-4.620838183E-1,-2.521838622E0,1.692806354E0,3.072260543E0
2.799911458E0,-1.028566675E0,-2.239294145E0,1.459946837E0,2.864233308E0
2.809926458E0,-1.723557592E0,-1.850006407E0,1.847985756E0,3.131808716E0
2.819941458E0,-2.485997237E0,-1.522863463E0,2.409089102E0,3.781931476E0
2.829957458E0,-2.867265226E0,-3.939982545E-1,2.148006099E0,3.604216239E0
2.839972458E0,-3.013395916E0,5.748543888E-1,2.135266331E0,3.737696459E0
2.849987458E0,-2.937028356E0,5.303401208E-1,2.355754163E0,3.802232749E0
2.860003458E0,-2.813039902E0,4.936921120E-1,1.957990447E0,3.462752082E0
2.870018458E0,-2.350117593E0,1.287963853E0,1.007717332E0,2.863109814E0
2.880033458E0,-1.654167222E0,1.996536462E0,2.233183220E-2,2.592860535E0
2.890049458E0,-9.353073134E-1,2.538400860E0,-4.587653773E-1,2.743855749E0
2.900064458E0,1.825857407E-1,2.755190474E0,-1.688056076E-1,2.766388880E0
2.910079458E0,7.030268177E-1,2.531922730E0,-1.312268389E0,2.937163214E0
2.920095458E0,9.280431712E-1,3.349421366E0,-2.658944135E0,4.376056618E0
2.930110458E0,1.755063998E0,4.025141394E0,-8.380463362E-1,4.470384160E0
2.940125458E0,1.968784407E0,2.960726536E0,1.077295690E0,3.715182319E0
2.950141458E0,1.815399662E-1,7.667249233E-1,2.547272841E0,2.666350088E0
2.960156458E0,-1.436441615E0,-3.427988648E-2,3.210283946E0,3.517166848E0
2.970171458E0,-2.802256174E0,4.231858009E-1,1.535744294E0,3.223388966E0
2.980187458E0,-2.371433179E0,1.584151053E0,-1.491874974E0,3.218527741E0
2.990202458E0,-3.829340069E-1,2.861538463E0,-2.550398762E0,3.852216852E0
3.000217458E0,-9.176054527E-1,4.697050792E-1,2.994757112E-1,1.073456254E0
3.010233458E0,2.933752745E-2,-7.646988630E-2,1.844159192E0,1.845977101E0
3.020248458E0,1.385090198E0,2.710206090E0,7.569817078E-1,3.136353489E0
3.030263458E0,1.022369869E0,3.812017400E0,1.548564899E-1,3.949771809E0
3.040279458E0,7.766384389E-1,4.249117820E0,-3.892058035E-1,4.337009416E0
3.050294458E0,8.794570483E-2,4.829461575E0,-1.616638184E0,5.093618809E0
3.060309458E0,-9.272087735E-1,4.439195598E0,-2.919877303E0,5.393686785E0
3.070325458E0,-1.767933719E0,2.860974791E0,-2.982622604E0,4.495197881E0
3.080340458E0,-1.066903726E0,2.852029721E0,-2.718099246E0,4.081717849E0
3.090355458E0,-6.163680120E-1,2.998194324E0,-2.377750365E0,3.875922539E0
3.100370458E0,-7.865813367E-1,2.714074023E0,-1.816961453E0,3.359502481E0
3.110386458E0,-2.036686076E-1,3.214216783E0,-1.175152206E0,3.428360124E0
3.120401458E0,6.525299710E-1,3.046846667E0,-1.248637527E0,3.356808849E0
3.130416458E0,1.333888031E0,2.434781767E0,-1.661041793E0,3.235193869E0
3.140432458E0,1.882742775E0,1.292175018E0,-1.361505600E0,2.658596271E0
3.150447458E0,2.503844401E0,5.424333322E-1,-1.154810912E0,2.810170626E0
3.160462458E0,1.992161868E0,-5.307342231E-1,-7.555082095E-1,2.195718647E0
3.170478458E0,1.599564606E0,-6.660855711E-1,2.700793827E-1,1.753630460E0
3.180493458E0,9.986959550E-1,-1.859466618E0,1.176561531E0,2.416465756E0
3.190508458E0,1.292541053E0,-2.994632785E0,1.691608844E0,3.674238475E0
3.200524458E0,4.553560705E0,-2.171193379E0,2.750656250E0,5.745877269E0
3.210539458E0,3.915426286E0,-3.623429493E0,7.528404173E-1,5.387631482E0
3.220554458E0,3.730593753E-1,-5.030285951E0,-1.238440275E-1,5.045620615E0
3.230570458E0,2.390626080E-1,-4.406880961E0,-5.447147696E-1,4.446848875E0
3.240585458E0,4.238634932E-1,-3.783600517E0,3.661315942E-1,3.824832738E0
3.250600458E0,4.002323366E-1,-3.315008163E0,4.471589465E-1,3.368889456E0
3.260616458E0,1.344887374E-1,-2.673260458E0,3.216687816E-1,2.695900499E0
3.270631458E0,-7.052326798E-2,-2.091961852E0,2.475348580E-1,2.107736091E0
3.280646458E0,-2.267868172E-1,-1.703416711E0,5.086355487E-1,1.792141421E0
3.290662458E0,-2.937628718E-1,-1.374514339E0,7.025034919E-1,1.571336199E0
3.300677458E0,-4.080373462E-1,-1.078897827E0,7.745961526E-1,1.389429450E0
3.310692458E0,-4.805665746E-1,-7.570565522E-1,7.857581949E-1,1.192264567E0
3.320707458E0,-7.463222337E-1,-4.552829218E-1,9.537697506E-1,1.293814574E0
3.330723458E0,-9.582370234E-1,-1.763485157E-1,1.243125064E0,1.579454627E0
3.340738458E0,-9.533320865E-1,6.803937078E-2,1.583362849E0,1.849461904E0
3.350753458E0,-8.653828733E-1,2.145448673E-1,1.960257120E0,2.153491350E0
3.360769458E0,-8.022990178E-1,2.175152528E-1,2.313184532E0,2.458011245E0
3.370784458E0,-7.809678635E-1,1.551541132E-1,2.545558437E0,2.667180414E0
3.380799458E0,-6.712941246E-1,8.947175503E-2,2.547492111E0,2.635973644E0
3.390815458E0,-4.527406986E-1,-5.235538423E-2,2.355944343E0,2.399622673E0
3.400830458E0,-3.751196417E-1,-2.637526953E-1,2.277722046E0,2.323423756E0
3.410845458E0,-4.647717834E-1,-4.479049051E-1,2.554985318E0,2.635257405E0
3.420861458E0,-6.254423790E-1,-8.189890909E-1,3.072487585E0,3.240694564E0
3.430876458E0,-1.831106452E0,-1.333065181E0,3.370569283E0,4.060880558E0
3.440891458E0,-2.994869890E0,-1.308495766E0,3.311777284E0,4.652878207E0
3.450907458E0,-3.866688282E0,-9.382120639E-1,3.225744276E0,5.122201312E0
3.460922458E0,-4.771024794E0,-6.022170192E-1,2.982835151E0,5.658855756E0
3.470937458E0,-4.907359936E0,-3.275013793E-1,2.644905262E0,5.584349787E0
3.480953458E0,-3.733847436E0,-2.105137968E-1,1.586645476E0,4.062434812E0
3.490968458E0,-1.183074525E0,-1.259583807E-1,-1.659957281E-1,1.201284907E0
3.500983458E0,-5.281811826E-2,-2.388628525E-1,-1.240029256E0,1.263929496E0
3.510998458E0,-1.220823126E0,-5.937900120E-1,-1.686600996E0,2.165090899E0
3.521014458E0,-1.887234168E0,-5.218353456E-1,-2.167592956E0,2.921031351E0
3.531029458E0,-8.598110615E-1,2.949125075E-1,-2.836105121E0,2.978210991E0
3.541044458E0,7.721352788E-1,1.449338234E0,-4.178442817E0,4.489561068E0
3.551060458E0,2.190135434E0,1.860005731E0,-4.784650561E0,5.581146435E0
3.561075458E0,2.910840138E0,1.360424303E0,-4.324228814E0,5.387271984E0
3.571090458E0,4.014220549E0,1.563271816E0,-3.852734194E0,5.779389774E0
3.581106458E0,4.830067347E0,2.592890478E0,-2.932938813E0,6.217295368E0
3.591121458E0,5.126760916E0,4.282825849E0,-1.493288684E0,6.845157839E0
3.601136458E0,4.426720856E0,6.343462413E0,-3.824849407E-1,7.744783254E0
3.611152458E0,2.611313008E0,7.433241323E0,-5.020315571E-1,7.894559385E0
3.621167458E0,3.687929544E-1,6.896517212E0,-1.677568510E0,7.107193117E0
3.631182458E0,-1.561701546E0,5.176046512E0,-2.921610417E0,6.145419159E0
3.641198458E0,-2.792573478E0,3.117597392E0,-3.206523017E0,5.272539235E0
3.651213458E0,-3.734309074E0,1.638997352E0,-2.522863054E0,4.795436848E0
3.661228458E0,-4.050173324E0,9.860457963E-1,-1.686992906E0,4.496902860E0
3.671243458E0,-3.714049641E0,4.784343874E-1,-8.800715907E-1,3.846763601E0
3.681259458E0,-3.156681643E0,-3.518719894E-1,-2.330023344E-1,3.184767335E0
3.691274458E0,-2.544617035E0,-1.384108450E0,7.812360314E-1,3.000193626E0
3.701289458E0,-1.854382756E0,-2.068603395E0,1.520006952E0,3.166745418E0
3.711305458E0,-9.957483736E-1,-2.788996736E0,1.665719712E0,3.397740392E0
3.721320458E0,-5.120786816E-1,-3.144569428E0,1.541209102E0,3.539190156E0
3.731335458E0,-1.453281596E-1,-3.332741014E0,9.300639689E-1,3.463134696E0
3.741351458E0,2.972819455E-1,-3.175104758E0,3.686834653E-1,3.210232745E0
3.751366250E0,4.611815929E-1,-2.926247259E0,4.420027256E-1,2.995159077E0
3.761381250E0,6.145435345E-1,-2.963950106E0,5.783761668E-1,3.081749986E0
3.771397250E0,7.533345070E-1,-2.976036301E0,7.416526473E-1,3.158220004E0
3.781412250E0,6.558241461E-1,-2.905365098E0,9.406135885E-1,3.123460515E0
3.791427250E0,3.589630540E-1,-2.778284637E0,1.018870384E0,2.980908730E0
3.801442250E0,-7.716614351E-2,-2.624117534E0,1.060246451E0,2.831266498E0
3.811458250E0,-6.374228123E-1,-2.539518263E0,1.123120319E0,2.849010372E0
3.821473250E0,-1.303684969E0,-2.463705604E0,1.284000610E0,3.068891880E0
3.831488250E0,-1.879359284E0,-2.351179447E0,1.574897104E0,3.397107151E0
3.841504250E0,-2.058500284E0,-2.228537022E0,2.036663564E0,3.654011378E0
3.851519250E0,-1.855125791E0,-2.183638592E0,2.516225295E0,3.813287157E0
3.861534250E0,-1.559785121E0,-1.787572178E0,2.909945222E0,3.754480671E0
3.871550250E0,-1.496869665E0,-1.360848227E0,3.045442750E0,3.656124757E0
3.881565250E0,-1.532559316E0,-1.103708147E0,2.845944231E0,3.415597795E0
3.891580250E0,-1.500566275E0,-1.188100426E0,2.254810317E0,2.957609057E0
3.901596250E0,-1.265576326E0,-1.489683437E0,1.104294623E0,2.245062760E0
3.911611250E0,-7.623623157E-1,-1.643137180E0,-6.884020543E-1,1.937780556E0
3.921626250E0,-1.728741002E-1,-5.813635093E-1,-2.446622379E0,2.520680473E0
3.931641250E0,8.319620159E-1,2.008808599E0,-3.246044347E0,3.906952353E0
3.941657250E0,1.782725859E0,3.408313937E0,-2.783779850E0,4.748067569E0
3.951672250E0,2.392682984E0,3.123793686E0,-2.068602226E0,4.445462183E0
3.961687250E0,2.840345814E0,2.856855428E0,-2.230337819E-1,4.034715770E0
3.971703250E0,3.133681328E0,2.356830196E0,3.470468670E0,5.236292584E0
3.981718250E0,1.601013254E0,7.898021293E-1,5.374513875E0,5.663252620E0
3.991733250E0,-5.581880701E-1,2.781666666E-1,1.942000798E0,2.039685690E0
4.001749250E0,-5.211608693E-2,2.721270776E0,-2.990226324E0,4.043449541E0
4.011764250E0,2.776558539E0,7.773451041E0,-2.692012478E0,8.682323974E0
4.021779250E0,3.363169047E0,9.105943195E0,-5.926340175E-1,9.725241518E0
4.031794250E0,2.644041336E0,6.439012349E0,-1.896862485E0,7.214563182E0
4.041810250E0,2.280320988E0,3.797217513E0,-1.278032942E0,4.609999224E0
4.051825250E0,9.371312061E-1,2.399412544E0,-5.368046562E-1,2.631264847E0
4.061840250E0,-7.541211037E-1,2.042395590E0,-9.005483206E-1,2.356069961E0
4.071856250E0,-2.186881604E0,8.421849954E-1,-7.436184081E-1,2.458596155E0
4.081871250E0,-2.651580151E0,-2.304533869E-1,-9.998504146E-1,2.843182533E0
4.091886250E0,-2.621214391E0,-5.733078003E-1,-1.131170619E0,2.911871166E0
4.101902250E0,-2.238030708E0,-3.006024331E-1,-1.706613969E0,2.830490154E0
4.111917250E0,-1.519209976E0,1.715508753E-1,-2.319514289E0,2.778052410E0
4.121932250E0,-2.255297390E-1,9.918783939E-1,-2.202329071E0,2.425889476E0
4.131948250E0,1.111464479E0,1.817943785E0,-1.361160614E0,2.528444405E0
4.141963250E0,2.256225781E0,1.955688398E0,-6.756877224E-1,3.061343788E0
4.151978250E0,3.298721913E0,1.776042053E0,-1.983970504E-1,3.751700018E0
4.161994250E0,4.040141841E0,1.293511691E0,1.361651342E-1,4.244344418E0
4.172009250E0,4.323538550E0,5.153022516E-1,2.957287788E-1,4.364169739E0
4.182024250E0,3.943991689E0,-3.592681324E-1,4.647647667E-1,3.987499256E0
4.192039250E0,2.809766631E0,-1.542301362E0,5.412893245E-1,3.250611656E0
4.202055250E0,2.005225425E0,-2.645991383E0,6.891278400E-1,3.390736879E0
4.212070250E0,1.543821491E0,-3.216494274E0,1.198996420E0,3.763882653E0
4.222085250E0,1.145622597E0,-3.474928342E0,1.379533735E0,3.910331372E0
4.232101250E0,7.916445869E-1,-3.561530868E0,1.242891614E0,3.854345968E0
4.242116250E0,4.923269333E-1,-3.518676624E0,1.142315851E0,3.732071342E0
4.252131250E0,5.378062843E-1,-3.273619816E0,9.492513147E-1,3.450637674E0
4.262146250E0,7.167984724E-1,-2.692405411E0,7.541259277E-1,2.886442943E0
4.272162250E0,7.341271345E-1,-2.064748911E0,4.397512552E-1,2.235064178E0
4.282177250E0,8.704656386E-1,-1.374089831E0,1.627443838E-1,1.634722920E0
4.292192250E0,1.172612614E0,-7.942612159E-1,1.780804610E-1,1.427439621E0
4.302208250E0,1.554675239E0,-4.050991935E-1,5.090096243E-1,1.685292632E0
4.312223250E0,1.737534337E0,-1.412944579E-1,9.005960485E-1,1.962157726E0
4.322238250E0,1.551243508E0,-1.949794990E-1,1.239139602E0,1.994953729E0
4.332254250E0,1.187053117E0,-3.540062231E-1,1.624484855E0,2.042881923E0
4.342269250E0,9.189232689E-1,-4.863819230E-1,1.915854242E0,2.179790087E0
4.352284250E0,8.470518523E-1,-4.844079030E-1,2.076507369E0,2.294347557E0
4.362299250E0,8.482229765E-1,-3.561252540E-1,2.257472554E0,2.437722245E0
4.372315250E0,8.688963190E-1,-9.884250283E-2,2.371111728E0,2.527235937E0
4.382330250E0,8.041195484E-1,1.238919747E-1,2.412066211E0,2.545588513E0
4.392345250E0,5.544867095E-1,2.879011112E-1,2.292627476E0,2.376233007E0
4.402361250E0,1.349184347E-1,2.204219037E-1,2.292978894E0,2.307496697E0
4.412376250E0,-3.781797089E-1,6.655885577E-3,2.612857843E0,2.640092858E0
4.422391250E0,-7.844856946E-1,-2.754026878E-1,3.135848013E0,3.244195926E0
4.432407250E0,-1.258845888E0,-5.787293386E-1,3.527383421E0,3.789730124E0
4.442422250E0,-2.067606006E0,-5.695258212E-1,3.709708083E0,4.285007389E0
4.452437250E0,-3.309899743E0,-1.278674966E-1,3.707495205E0,4.971650339E0
4.462452250E0,-4.305156366E0,2.861522090E-1,3.302693634E0,5.433602825E0
4.472468250E0,-3.988845972E0,8.526456642E-1,2.775046741E0,4.933435034E0
4.482483250E0,-2.493510909E0,1.270032781E0,1.965928920E0,3.419862049E0
4.492498250E0,-1.050897557E0,9.540246892E-1,1.332864622E0,1.947068793E0
4.502514250E0,4.683570767E-1,4.098886478E-1,3.577610126E-1,7.178857827E-1
4.512529250E0,1.675890943E0,-5.897209346E-2,-7.109728914E-1,1.821419945E0
4.522544250E0,1.304748432E0,-9.425524521E-1,-1.509420421E0,2.206609074E0
4.532560250E0,-6.439535674E-1,-2.056968606E0,-2.706717056E0,3.460074170E0
4.542575250E0,-2.088175342E0,-2.770696120E0,-3.980498780E0,5.280303380E0
4.552590250E0,-2.065147106E0,-2.761942838E0,-4.387250104E0,5.580423307E0
4.562605250E0,-2.106642457E0,-2.206311756E0,-4.046058054E0,5.067182627E0
4.572621250E0,-1.655980005E0,-1.253879848E0,-3.711839101E0,4.253496675E0
4.582636250E0,-6.554295322E-1,1.280195242E-1,-3.182983296E0,3.252285278E0
4.592651250E0,1.280539058E0,1.831984119E0,-2.475506455E0,3.335277845E0
4.602667250E0,2.910556256E0,3.885463107E0,-2.305139933E0,5.374181927E0
4.612682250E0,3.892124839E0,6.286181334E0,-2.967267816E0,7.966767841E0
4.622697250E0,3.833343365E0,8.339562088E0,-3.137330575E0,9.699776302E0
4.632713250E0,3.101290384E0,1.013131269E1,-2.131073878E0,1.080754249E1
4.642728250E0,1.496983394E0,9.270550502E0,-1.234725978E0,9.471463146E0
4.652743250E0,-1.549380586E-2,6.307540044E0,-1.620284215E0,6.512343848E0
4.662758250E0,-1.348300979E0,3.406438150E0,-1.863888721E0,4.110452234E0
4.672774250E0,-2.204802882E0,1.674396980E0,-1.353288946E0,3.081582705E0
4.682789250E0,-2.829980747E0,9.308989513E-1,-8.460324633E-1,3.096955734E0
4.692804250E0,-3.481959326E0,4.423032725E-1,-8.362173271E-1,3.608175765E0
4.702820250E0,-3.634295374E0,5.863880217E-2,-8.571092094E-1,3.734458136E0
4.712835250E0,-3.467523428E0,-9.372069275E-1,-6.207754970E-1,3.645193790E0
4.722850250E0,-2.894346897E0,-1.762028031E0,4.352565005E-2,3.388787575E0
4.732866250E0,-2.228751615E0,-2.933923484E0,4.982729669E-1,3.717999021E0
4.742881250E0,-1.262712798E0,-3.847450358E0,7.712242095E-1,4.122148062E0
4.752895958E0,-2.240531708E-1,-3.950705169E0,1.008615610E0,4.083573999E0
4.762910958E0,2.234960774E-1,-3.865346346E0,4.440609455E-1,3.897183983E0
4.772926958E0,6.167799483E-1,-3.566690451E0,-3.609964232E-1,3.637583909E0
4.782941958E0,9.135328670E-1,-3.538515058E0,-1.407543214E-1,3.657245260E0
4.792956958E0,1.393515305E0,-3.464123856E0,3.782600351E-1,3.753014742E0
4.802972958E0,1.759026948E0,-3.302351865E0,9.345686638E-1,3.856568712E0
4.812987958E0,1.658174172E0,-3.071824218E0,1.292497784E0,3.722391185E0
4.823002958E0,1.264446498E0,-2.765994374E0,1.291993900E0,3.304360462E0
4.833017958E0,6.091389531E-1,-2.614200071E0,1.031384522E0,2.875560173E0
4.843033958E0,-1.047777191E-1,-2.491451227E0,7.305558014E-1,2.598464810E0
4.853048958E0,-7.206197740E-1,-2.442194282E0,6.530054958E-1,2.628692061E0
4.863063958E0,-1.195998114E0,-2.467698668E0,8.574074905E-1,2.873168253E0
4.873079958E0,-1.284769519E0,-2.410552075E0,1.348515425E0,3.046290839E0
4.883094958E0,-1.081123131E0,-1.930814343E0,1.881505212E0,2.904639929E0
4.893109958E0,-9.491298388E-1,-1.468389047E0,2.302310611E0,2.890959702E0
4.903125958E0,-1.062524161E0,-1.325194829E0,2.294433389E0,2.854737029E0
4.913140958E0,-1.385499211E0,-1.324199048E0,1.663294287E0,2.537648334E0
4.923155958E0,-1.545861731E0,-1.387153680E0,3.835457718E-1,2.112105865E0
4.933170958E0,-1.091588624E0,-1.006753711E0,-1.210447315E0,1.915803085E0
4.943186958E0,-4.081210345E-1,-3.701954091E-1,-2.219433492E0,2.286808354E0
4.953201958E0,1.517698909E-1,8.355864125E-1,-2.358457769E0,2.506703373E0
4.963216958E0,7.762243098E-1,2.437859741E0,-1.426466850E0,2.929247680E0
4.973232958E0,1.277578028E0,2.749898744E0,-4.089775054E-1,3.059642351E0
4.983247958E0,1.828265290E0,2.358248731E0,1.174076537E0,3.206609855E0
4.993262958E0,1.843714511E0,1.813775890E0,3.921467922E0,4.697550089E0
5.003277958E0,1.377819624E-1,3.724454176E-1,5.657907368E0,5.671826447E0
5.013293958E0,-2.720509176E0,-5.901717550E-1,4.741037934E0,5.497900832E0
5.023308958E0,-4.793579552E0,-3.189147431E-1,9.426303662E-2,4.805101149E0
5.033323958E0,-3.491051162E0,1.555645877E0,-5.121124785E0,6.390101045E0
5.043339958E0,1.152823370E0,6.948024166E0,-6.684480801E0,9.710114577E0
5.053354958E0,4.935244723E0,1.152902761E1,-4.889553995E0,1.346041813E1
5.063369958E0,5.343713082E0,1.051918072E1,-2.554763124E0,1.207208545E1
5.073384958E0,3.114538713E0,3.641225494E0,-3.410738631E-1,4.803665878E0
5.083400958E0,2.165691587E0,5.406394064E-1,8.891254194E-1,2.402718259E0
5.093415958E0,7.604939110E-1,2.809598815E-1,6.236804668E-1,1.022871824E0
5.103430958E0,-9.158169356E-1,-8.358126998E-2,-2.466951978E-1,9.521370746E-1
5.113446958E0,-2.192076417E0,4.928676546E-2,-1.290045462E0,2.543982212E0
5.123461958E0,-3.452325929E0,-1.276517344E-1,-2.643464216E0,4.350029006E0
5.133476958E0,-3.823567990E0,-9.552713156E-2,-3.386054757E0,5.108244750E0
5.143491958E0,-3.406249870E0,3.635424471E-1,-3.449422202E0,4.861400500E0
5.153507958E0,-2.335907251E0,9.903604567E-1,-2.792179960E0,3.772737129E0
5.163522958E0,-8.776889965E-1,1.301045828E0,-1.793522304E0,2.383229002E0
5.173537958E0,1.046700134E0,1.214035167E0,-7.988009942E-1,1.790962195E0
5.183553958E0,2.993143207E0,8.882552075E-1,-2.701951575E-1,3.133832956E0
5.193568958E0,3.979185787E0,4.705564338E-1,5.029315898E-1,4.038351529E0
5.203583958E0,5.406162515E0,3.653047979E-1,3.391686795E0,6.392462753E0
5.213598958E0,6.929691975E0,6.317401958E-1,4.862914081E0,8.489267336E0
5.223614958E0,3.656804523E0,-1.096886201E0,-2.247245774E-1,3.824379661E0
5.233629958E0,1.226920237E0,-3.619781415E0,-1.071207130E0,3.969336906E0
5.243644958E0,1.047900275E0,-3.862939632E0,-1.425291560E0,4.248747300E0
5.253660958E0,7.427299967E-1,-3.751113387E0,-1.467615899E0,4.095899891E0
5.263675958E0,6.889592940E-1,-3.374871957E0,-4.944861639E-1,3.479790540E0
5.273690958E0,4.334295380E-1,-3.333074305E0,6.680139828E-1,3.426877320E0
5.283705958E0,4.678991666E-1,-3.247258814E0,1.484328557E0,3.600951361E0
5.293721958E0,4.203569180E-1,-2.731798688E0,1.405270693E0,3.100678914E0
5.303736958E0,1.728253125E-1,-2.163094400E0,1.126051235E0,2.444757116E0
5.313751958E0,2.746850152E-2,-1.746666226E0,1.081482588E0,2.054556403E0
5.323767958E0,1.907990687E-1,-1.321922727E0,1.330253548E0,1.885061931E0
5.333782958E0,1.293901116E-1,-8.665269542E-1,1.860036721E0,2.056051402E0
5.343797958E0,-2.348390545E-1,-5.423380226E-1,2.011493932E0,2.096518007E0
5.353812958E0,-8.548141041E-1,-3.437373430E-1,1.840544735E0,2.058268067E0
5.363828958E0,-1.213088795E0,-3.340192705E-1,1.731867801E0,2.140681988E0
5.373843958E0,-1.166840535E0,-4.003319585E-1,1.668471119E0,2.074988768E0
5.383858958E0,-1.066037461E0,-5.041282225E-1,1.738435686E0,2.100652224E0
5.393874958E0,-8.690526590E-1,-5.218856317E-1,1.833231915E0,2.094840422E0
5.403889958E0,-6.885610255E-1,-4.830706447E-1,1.923409429E0,2.099280202E0
5.413904958E0,-5.055876875E-1,-3.688183898E-1,1.946886585E0,2.044997136E0
5.423919958E0,-4.468808383E-1,-2.118832147E-1,2.079982954E0,2.137972420E0
5.433935958E0,-3.283925680E-1,-7.377724349E-2,2.376151443E0,2.399870922E0
5.443950958E0,-7.345874566E-1,-2.678720587E-1,2.616348338E0,2.730687239E0
5.453965958E0,-1.880302732E0,-2.118914008E-1,2.870387346E0,3.437958675E0
5.463981958E0,-3.478096071E0,1.227424121E-1,3.221033175E0,4.742074724E0
5.473996958E0,-4.864926692E0,5.348284435E-1,3.193876659E0,5.844176700E0
5.484011958E0,-4.901376188E0,1.319023678E0,2.538473658E0,5.675135286E0
5.494026958E0,-4.427283358E0,1.885290261E0,1.990773739E0,5.207526993E0
5.504042958E0,-3.789670804E0,1.943458947E0,1.253859383E0,4.439684767E0
5.514057958E0,-2.207866823E0,1.903941709E0,-1.071072498E-1,2.917386142E0
5.524072958E0,-2.879706931E-1,1.689949404E0,-1.499318479E0,2.277457356E0
5.534088958E0,-8.629721394E-1,8.430170542E-1,-1.389312472E0,1.839996688E0
5.544103958E0,-2.349239341E0,-7.242361307E-2,-1.274660268E0,2.673748204E0
5.554118958E0,-2.715327373E0,-4.955977196E-1,-1.923175833E0,3.364108371E0
5.564133958E0,-1.854009119E0,-5.086188841E-1,-3.445689340E0,3.945734153E0
5.574149958E0,-1.619336674E-1,-5.418567967E-1,-4.603357347E0,4.637966167E0
5.584164958E0,8.686369950E-1,-8.843849355E-1,-4.977665688E0,5.129700054E0
5.594179958E0,2.193293222E0,-8.998087209E-1,-5.064851182E0,5.592218557E0
5.604195958E0,3.653132179E0,-1.694973332E-1,-4.652206156E0,5.917527033E0
5.614210958E0,4.911039589E0,1.497149162E0,-3.955099937E0,6.480939821E0
5.624225958E0,5.247733961E0,3.061914357E0,-3.140181970E0,6.839208584E0
5.634240958E0,4.815304297E0,4.110860991E0,-1.783624138E0,6.577814882E0
5.644256958E0,3.782384588E0,5.540951360E0,-5.465988886E-1,6.731073131E0
5.654271958E0,1.654770800E0,5.733949238E0,2.467080617E-1,5.973048228E0
5.664286958E0,-5.893084136E-1,4.781389861E0,-9.574979353E-1,4.911799640E0
5.674302958E0,-2.112347731E0,3.564925177E0,-2.192043673E0,4.687831046E0
5.684317958E0,-2.693103276E0,2.545104108E0,-2.057284355E0,4.238251892E0
5.694332958E0,-2.945283455E0,1.238731467E0,-8.311021829E-1,3.301496799E0
5.704347958E0,-3.586123380E0,2.147273004E-2,-3.116207801E-2,3.586323054E0
5.714363958E0,-4.399104457E0,-8.910677183E-1,-4.034062783E-1,4.506535069E0
5.724378958E0,-4.303160126E0,-1.440612434E0,-8.174689610E-1,4.610944237E0
5.734393958E0,-3.286497432E0,-2.124745436E0,-7.711003947E-1,3.988759752E0
5.744408958E0,-2.121069292E0,-2.903169469E0,-2.762785276E-1,3.606058476E0
5.754425083E0,-1.039885204E0,-3.376358904E0,2.603110242E-1,3.542445838E0
5.764440083E0,-9.644207463E-2,-3.517641082E0,5.953294377E-1,3.568965816E0
5.774455083E0,7.101563278E-1,-3.393548548E0,4.307936132E-1,3.493719636E0
5.784471083E0,1.118117587E0,-3.006873931E0,3.955743715E-2,3.208277196E0
5.794486083E0,1.306938360E0,-2.677452911E0,-4.296534061E-3,2.979406053E0
5.804501083E0,1.525901383E0,-2.455245268E0,3.050281906E-1,2.906827576E0
5.814516083E0,1.561022100E0,-2.463735425E0,6.582771993E-1,2.990001858E0
5.824532083E0,1.477382357E0,-2.426674603E0,8.053931451E-1,2.952975851E0
5.834547083E0,1.196666159E0,-2.390897244E0,8.260982088E-1,2.798363411E0
5.844562083E0,6.476332203E-1,-2.364205289E0,7.604058373E-1,2.566537059E0
5.854577083E0,-1.076678516E-1,-2.253176605E0,8.351040903E-1,2.405368167E0
5.864593083E0,-8.648289227E-1,-2.100394122E0,1.100885696E0,2.524189741E0
5.874608083E0,-1.481428338E0,-1.840839728E0,1.515167942E0,2.806965393E0
5.884623083E0,-1.801357866E0,-1.646781165E0,1.871706594E0,3.075721694E0
5.894639083E0,-1.849300941E0,-1.528493747E0,1.982080976E0,3.112049501E0
5.904654083E0,-2.008274163E0,-1.264051664E0,2.149960384E0,3.202080789E0
5.914669083E0,-2.123793363E0,-8.662071115E-1,2.502031764E0,3.394256319E0
5.924684083E0,-2.166146939E0,-4.141910291E-1,2.378342103E0,3.243494709E0
5.934700083E0,-2.191415389E0,-9.389166534E-2,1.688388197E0,2.767990563E0
5.944715083E0,-2.060719594E0,-2.188729763E-1,4.249041514E-1,2.115422928E0
5.954730083E0,-1.480539269E0,-1.755176264E-1,-1.132875959E0,1.872487892E0
5.964746083E0,-4.278158455E-1,3.442606688E-1,-2.138878741E0,2.208244569E0
5.974761083E0,1.258931550E0,1.599772475E0,-2.726812767E0,3.402894134E0
5.984776083E0,1.948349558E0,3.093826121E0,-2.171258283E0,4.252315675E0
5.994791083E0,1.935180020E0,3.161067932E0,-1.739142029E0,4.094128378E0
6.004807083E0,2.628848516E0,2.876953477E0,-5.542083089E-1,3.936350172E0
6.014822083E0,3.079113942E0,2.805160194E0,1.433763006E0,4.405172271E0
6.024837083E0,2.245001905E0,2.653447752E0,1.699009080E0,3.868778926E0
6.034852083E0,1.574685727E0,3.622803256E0,4.168783363E-1,3.972168944E0
6.044868083E0,2.005959104E0,5.439874052E0,5.849261812E-1,5.827369927E0
6.054883083E0,6.253196606E-1,4.700470244E0,1.880814217E0,5.101265266E0
6.064898083E0,-4.517335157E-1,2.058326329E0,-1.202807708E-1,2.110743450E0
6.074914083E0,-5.210974270E-1,6.822917140E-1,-2.488180879E0,2.632130050E0
6.084929083E0,-6.812418464E-1,1.183546615E0,-1.327121487E0,1.904238557E0
6.094944083E0,-1.650092151E0,1.676432980E0,-1.245709534E0,2.661770818E0
6.104959083E0,-2.563907000E0,1.394850955E0,-1.576589434E0,3.317357764E0
6.114975083E0,-2.412139155E0,6.672737253E-1,-1.045692585E0,2.712405300E0
6.124990083E0,-1.772103222E0,-1.631238681E-1,-1.191843741E0,2.141833497E0
6.135005083E0,-1.131671141E0,-4.844032252E-1,-1.821402998E0,2.198370973E0
6.145020083E0,-3.645997699E-1,-4.644443393E-2,-2.040126286E0,2.072970173E0
6.155036083E0,6.106191757E-1,8.698586977E-1,-2.290115805E0,2.524705989E0
6.165051083E0,1.687405134E0,1.839114214E0,-1.952657787E0,3.168998203E0
6.175066083E0,2.340111545E0,2.430891615E0,-1.150981132E0,3.565124633E0
6.185082083E0,2.596214036E0,2.657118634E0,-5.975947952E-1,3.762675417E0
6.195097083E0,2.467595757E0,2.182296656E0,-3.574731834E-1,3.313492808E0
6.205112083E0,2.078308311E0,1.360841795E0,-1.095557714E-1,2.486615832E0
6.215127083E0,1.689041770E0,4.003296196E-1,5.427984908E-2,1.736684257E0
6.225143083E0,1.137753561E0,-6.395696175E-1,1.363874745E-1,1.312301034E0
6.235158083E0,6.817414910E-1,-1.643301487E0,4.128068469E-1,1.826368180E0
6.245173083E0,7.544707672E-1,-2.355656075E0,6.890006630E-1,2.567696165E0
6.255188083E0,8.960979317E-1,-2.904220798E0,8.811214583E-1,3.164469145E0
6.265204083E0,1.084428708E0,-3.079530848E0,7.903576148E-1,3.359190532E0
6.275219083E0,1.396239669E0,-2.835304930E0,5.829580450E-1,3.213764045E0
6.285234083E0,1.600340239E0,-2.371740596E0,2.753839767E-1,2.874383181E0
6.295249083E0,1.735395864E0,-1.978901260E0,1.282849878E-2,2.632074006E0
6.305265083E0,1.738799236E0,-1.632581202E0,-2.317441598E-1,2.396340861E0
6.315280083E0,1.388700561E0,-1.590865996E0,-3.087977444E-1,2.134174293E0
6.325295083E0,1.057157367E0,-1.790713302E0,-1.155523834E-1,2.082687730E0
6.335311083E0,7.802762110E-1,-1.863550313E0,5.277183755E-1,2.088094207E0
6.345326083E0,4.531772663E-1,-1.830221769E0,1.339338367E0,2.312770766E0
6.355341083E0,4.655699283E-3,-1.812997041E0,1.837680915E0,2.581482344E0
6.365356083E0,-6.529930705E-1,-1.753764746E0,2.053850870E0,2.778559723E0
6.375372083E0,-1.332034902E0,-1.595674746E0,2.119665960E0,2.968750353E0
6.385387083E0,-1.734330648E0,-1.247918027E0,2.040004810E0,2.954119466E0
6.395402083E0,-1.743812785E0,-8.637501115E-1,1.871733491E0,2.700061767E0
6.405417083E0,-1.556486122E0,-4.437563056E-1,1.750723317E0,2.384240097E0
6.415433083E0,-1.311024394E0,-1.046943963E-1,1.732940765E0,2.175506739E0
6.425448083E0,-1.211125884E0,2.089520055E-1,1.779327604E0,2.162520189E0
6.435463083E0,-1.023440129E0,4.292142802E-1,1.707570865E0,2.036529611E0
6.445479083E0,-7.921722981E-1,3.784622025E-1,1.625608982E0,1.847532178E0
6.455494083E0,-5.739634924E-1,3.272862017E-2,1.677369997E0,1.773154071E0
6.465509083E0,-2.944572287E-1,-4.561623430E-1,1.928479842E0,2.003452930E0
6.475524083E0,-3.432597716E-1,-1.095844227E0,2.288037412E0,2.560042390E0
6.485540083E0,-1.468589022E0,-1.481504352E0,2.745249038E0,3.447898076E0
6.495555083E0,-2.645395551E0,-1.236800131E0,2.881532432E0,4.102562777E0
6.505570083E0,-3.637402584E0,-7.892443049E-1,2.780928748E0,4.646199396E0
6.515585083E0,-3.884478728E0,-1.746767968E-1,2.437814426E0,4.589403681E0
6.525601083E0,-3.486564885E0,7.456252456E-2,1.617048658E0,3.844026617E0
6.535616083E0,-2.862599148E0,4.097611785E-2,3.612456608E-1,2.885593760E0
6.545631083E0,-1.198428509E0,1.065093720E-1,-1.044139053E0,1.593047865E0
6.555646083E0,-2.002313219E-2,1.653124809E-1,-1.149396244E0,1.161396086E0
6.565662083E0,-9.377983734E-1,-3.281282008E-1,-1.362920480E0,1.686619738E0
6.575677083E0,-1.329083520E0,-5.863962078E-1,-2.533175496E0,2.920154381E0
6.585692083E0,-1.109029771E0,-3.204209858E-1,-3.263592719E0,3.461741480E0
6.595707083E0,1.706455071E-1,3.043481594E-1,-4.060697143E0,4.075660557E0
6.605723083E0,1.573016201E0,1.338133548E0,-4.214422781E0,4.693222852E0
6.615738083E0,2.170242621E0,1.927596036E0,-3.845957564E0,4.818399018E0
6.625753083E0,2.915048380E0,2.032766395E0,-3.351393632E0,4.884821957E0
6.635769083E0,3.529800075E0,1.780400568E0,-2.816958121E0,4.854334950E0
6.645784083E0,3.819745665E0,1.047956116E0,-1.302731581E0,4.169625707E0
6.655799083E0,3.872372360E0,1.386315774E0,-1.355342342E0,4.330599495E0
6.665814083E0,2.557721523E0,2.582560202E0,-2.483507785E0,4.402200303E0
6.675830083E0,8.436674839E-1,3.997445472E0,-3.022493598E0,5.082008725E0
6.685845083E0,-4.572011740E-1,5.497160978E0,-2.761749880E0,6.168879487E0
6.695860083E0,-1.553378912E0,6.357809141E0,-2.034191362E0,6.853660162E0
6.705875083E0,-2.239928568E0,5.419312903E0,-1.542879066E0,6.063555734E0
6.715891083E0,-2.921119251E0,3.400877448E0,-1.386867167E0,4.692792946E0
6.725906083E0,-3.459681727E0,1.885049356E0,-1.197116760E0,4.117753910E0
6.735921083E0,-3.949382822E0,9.135216111E-1,-1.060343515E0,4.190044722E0
6.745936083E0,-3.989851401E0,-1.796071690E-1,-9.576452851E-1,4.107098420E0
6.755951958E0,-3.218927885E0,-1.403641659E0,-5.731207625E-1,3.558113832E0
6.765966958E0,-1.985297821E0,-2.379492250E0,1.024245071E-1,3.100625999E0
6.775981958E0,-8.864944647E-1,-3.119250984E0,5.379344114E-1,3.287091810E0
6.785997958E0,-1.369319965E-1,-3.425224670E0,6.389684507E-1,3.487003741E0
6.796012958E0,2.202535039E-1,-3.374370850E0,4.521745420E-1,3.411649463E0
6.806027958E0,5.338433339E-1,-3.047834262E0,4.764903344E-2,3.094600592E0
6.816042958E0,7.792980449E-1,-2.801346640E0,-2.261000618E-1,2.916499559E0
6.826058958E0,9.898938489E-1,-2.603003238E0,-1.787634158E-1,2.790604244E0
6.836073958E0,1.032732743E0,-2.439529122E0,1.500302712E-1,2.653365474E0
6.846088958E0,7.996291061E-1,-2.312760901E0,5.293882672E-1,2.503701586E0
6.856103958E0,3.737858918E-1,-2.225565467E0,8.031244254E-1,2.395384392E0
6.866119958E0,-4.521242559E-2,-2.163631759E0,9.252797771E-1,2.353611952E0
6.876134958E0,-5.123856604E-1,-2.156506927E0,9.237747037E-1,2.401337314E0
6.886149958E0,-9.876394549E-1,-2.182879039E0,9.843822634E-1,2.590251152E0
6.896164958E0,-1.279517842E0,-2.020679616E0,1.194753388E0,2.673527198E0
6.906180958E0,-1.454119356E0,-1.906689901E0,1.582930155E0,2.873255532E0
6.916195958E0,-1.553044012E0,-1.906398125E0,1.968215035E0,3.149630127E0
6.926210958E0,-1.599530985E0,-1.895671408E0,2.097954079E0,3.248612130E0
6.936225958E0,-1.685330981E0,-1.846972872E0,2.166683421E0,3.308499109E0
6.946241958E0,-1.836696829E0,-1.740486304E0,1.942150486E0,3.189779981E0
6.956256958E0,-1.872005972E0,-1.826329277E0,1.176483251E0,2.867751354E0
6.966271958E0,-1.568196926E0,-2.128457834E0,1.521585846E-1,2.648155317E0
6.976286958E0,-8.966462544E-1,-2.077408133E0,-7.985331917E-1,2.399427914E0
6.986302958E0,1.065938643E-1,-9.509572399E-1,-1.549079454E0,1.820804514E0
6.996317958E0,7.771937782E-1,6.817835909E-1,-1.548698215E0,1.862075508E0
7.006332958E0,1.080814544E0,2.300584075E0,-7.603274846E-1,2.653101025E0
7.016348958E0,1.434336764E0,2.849610143E0,-2.999599703E-1,3.204305838E0
7.026363958E0,1.746321825E0,2.704795661E0,2.241284537E-1,3.227350779E0
7.036378958E0,1.732416854E0,2.452721025E0,2.004668770E0,3.610513185E0
7.046393958E0,1.460549685E-1,1.449069262E0,2.999039247E0,3.333972133E0
7.056409958E0,-2.464502872E0,1.145536205E0,9.123948526E-1,2.866791232E0
7.066424958E0,-2.779342983E0,1.677220016E0,-1.843383851E0,3.733078946E0
7.076439958E0,4.354118903E-1,5.893436138E0,-2.569300472E0,6.443871347E0
7.086454958E0,2.403467004E0,9.576818302E0,-8.201152647E-1,9.907809621E0
7.096470958E0,2.453922335E0,8.361880326E0,-5.227621293E-1,8.730180849E0
7.106485958E0,2.356922436E0,4.385132827E0,1.155129512E-1,4.979740608E0
7.116500958E0,7.435043143E-1,1.397083422E0,9.797313881E-1,1.861320592E0
7.126515958E0,-1.563104001E-1,7.623453587E-1,2.682738356E-1,8.231489768E-1
7.136531958E0,-9.745653731E-1,5.930661267E-1,-5.290981356E-1,1.257557130E0
7.146546958E0,-2.052922771E0,4.659804028E-1,-9.576802953E-1,2.312743217E0
7.156561958E0,-2.598854346E0,1.847416091E-1,-1.872015327E0,3.208210523E0
7.166576958E0,-2.035785313E0,-2.073703337E-1,-2.349247527E0,3.115507702E0
7.176592958E0,-9.954840794E-1,-3.227797526E-1,-2.144011281E0,2.385782826E0
7.186607958E0,-2.664767669E-1,-1.975160211E-1,-2.368725772E0,2.391836999E0
7.196622958E0,4.424691872E-1,2.085421157E-1,-2.711201870E0,2.754974479E0
7.206637958E0,1.241091110E0,8.736161184E-1,-2.511294923E0,2.934299653E0
7.216653958E0,2.108363292E0,1.562961913E0,-1.944911395E0,3.266607728E0
7.226668958E0,2.957092784E0,1.959183864E0,-1.246599626E0,3.759894915E0
7.236683958E0,3.736784200E0,2.039118810E0,-6.087511365E-1,4.300248787E0
7.246698958E0,3.984429570E0,1.572243783E0,-2.528160632E-1,4.290867684E0
7.256714958E0,3.773736849E0,5.837111664E-1,-3.112157142E-1,3.831274429E0
7.266729958E0,2.892032277E0,-9.408386332E-1,-1.591306584E-1,3.045381847E0
7.276744958E0,1.803325600E0,-2.229523448E0,2.789681737E-1,2.881072936E0
7.286759958E0,1.443790688E0,-2.868253405E0,5.226991256E-1,3.253401839E0
7.296775958E0,1.367565362E0,-3.353033191E0,7.442090499E-1,3.696878914E0
7.306790958E0,1.091029191E0,-3.773778949E0,8.135079110E-1,4.011676379E0
7.316805958E0,8.293189283E-1,-3.527753842E0,6.773005307E-1,3.686672356E0
7.326820958E0,5.569389586E-1,-3.141246455E0,4.894961500E-1,3.227571344E0
7.336836958E0,4.096344401E-1,-2.677051207E0,3.867219794E-1,2.735682261E0
7.346851958E0,5.591490600E-1,-2.169207079E0,1.615208539E-1,2.245928764E0
7.356866958E0,4.950549518E-1,-1.684978686E0,1.231144412E-1,1.760508376E0
7.366881958E0,3.469205672E-1,-1.062871193E0,3.287211084E-1,1.165378317E0
7.376897958E0,3.450238766E-1,-4.676111913E-1,5.202166902E-1,7.799532719E-1
7.386912958E0,2.696798716E-1,3.815892935E-2,8.369341958E-1,8.801375944E-1
7.396927958E0,1.071957620E-1,3.720571625E-1,1.085064446E0,1.152077392E0
7.406942958E0,-1.070275815E-1,4.570762628E-1,1.067717658E0,1.166359555E0
7.416958958E0,-4.480791521E-1,3.977124059E-1,1.108880010E0,1.260382863E0
7.426973958E0,-5.796991725E-1,3.337485445E-1,1.198306303E0,1.372361912E0
7.436988958E0,-5.332754230E-1,3.284544754E-1,1.348624038E0,1.486960596E0
7.447003958E0,-4.594826844E-1,3.417925590E-1,1.586684067E0,1.686864790E0
7.457019958E0,-3.374786295E-1,2.062108308E-1,1.854291247E0,1.895998618E0
7.467034958E0,-2.760049510E-1,-1.309425473E-2,2.122313287E0,2.140225194E0
7.477049958E0,-1.832608017E-1,-2.251984942E-1,2.213514941E0,2.232475594E0
7.487064958E0,-1.225364439E-1,-3.733605069E-1,2.088016151E0,2.124670491E0
7.497080958E0,-1.677620257E-1,-5.765354633E-1,2.071033498E0,2.156320242E0
7.507095958E0,-2.544936293E-1,-9.051735413E-1,2.288232417E0,2.473886363E0
7.517110958E0,-1.064672720E-1,-1.383314983E0,2.599050812E0,2.946177311E0
7.527125958E0,-2.436366655E-1,-1.961836746E0,2.909026040E0,3.517185628E0
7.537141958E0,-1.408398807E0,-2.127324058E0,3.238847302E0,4.123011848E0
7.547156958E0,-2.624718627E0,-1.898511400E0,3.135076766E0,4.508015055E0
7.557171958E0,-3.327543131E0,-1.508740683E0,2.780943073E0,4.591566848E0
7.567186958E0,-3.496709220E0,-8.780260885E-1,2.499699017E0,4.387071957E0
7.577202958E0,-3.171608415E0,-6.905175769E-1,1.344960172E0,3.513521357E0
7.587217958E0,-1.764821100E0,-6.018018669E-1,-2.756754604E-1,1.884875583E0
7.597232958E0,-1.008219023E0,-2.448404610E-1,-6.334262404E-1,1.215599133E0
7.607248958E0,-1.815303914E0,-2.807189763E-2,-7.260402891E-1,1.955313487E0
7.617263958E0,-2.400875225E0,4.104885721E-1,-1.537305501E0,2.880279660E0
7.627278958E0,-2.098505033E0,1.040665807E0,-2.814545560E0,3.661744858E0
7.637293958E0,-8.681692909E-1,1.302988274E0,-3.465608172E0,3.802885268E0
7.647308958E0,6.531528457E-1,1.357224122E0,-3.685325486E0,3.981242256E0
7.657324958E0,2.019651675E0,1.351038938E0,-4.148715280E0,4.807924456E0
7.667339958E0,2.953994052E0,1.214557908E0,-4.831958921E0,5.792154934E0
7.677354958E0,3.859228404E0,1.154526299E0,-4.874828660E0,6.323806552E0
7.687369958E0,4.903873826E0,1.468780226E0,-4.420901999E0,6.763850113E0
7.697385958E0,5.276867713E0,1.717426640E0,-3.543378772E0,6.584103602E0
7.707400958E0,5.157828342E0,2.236192782E0,-2.802515498E0,6.281547937E0
7.717415958E0,4.298865639E0,2.940806242E0,-2.071906926E0,5.605478163E0
7.727430958E0,2.941092755E0,3.832916518E0,-1.314576870E0,5.006933990E0
7.737446958E0,1.072284918E0,4.555290896E0,-8.369131458E-1,4.754039725E0
7.747461958E0,-7.091481216E-1,4.785877599E0,-1.144937596E0,4.971760005E0
7.757477375E0,-1.628223126E0,4.297538613E0,-1.868398240E0,4.960933446E0
7.767492375E0,-2.122344277E0,2.984148728E0,-2.359829818E0,4.356407422E0
7.777508375E0,-2.569622361E0,1.792829409E0,-2.279962699E0,3.874974358E0
7.787523375E0,-2.837606686E0,9.597894591E-1,-1.854378955E0,3.523056744E0
7.797538375E0,-2.914408987E0,7.215054810E-2,-1.736707249E0,3.393396162E0
7.807553375E0,-2.879646412E0,-6.216034627E-1,-1.464343944E0,3.289841563E0
7.817569375E0,-2.363610335E0,-1.653293794E0,-4.471283218E-1,2.918896696E0
7.827584375E0,-1.833069947E0,-2.758097125E0,3.666730464E-1,3.331920513E0
7.837599375E0,-1.160057326E0,-3.276179727E0,7.466039964E-1,3.554786088E0
7.847614375E0,-4.166570923E-1,-3.426286524E0,5.420415688E-1,3.493830497E0
7.857630375E0,1.957526471E-1,-3.173376905E0,1.929382360E-1,3.185257485E0
7.867645375E0,5.806521955E-1,-2.775093226E0,-3.043826580E-2,2.835352866E0
7.877660375E0,9.927882206E-1,-2.285508783E0,-2.123380550E-1,2.500853114E0
7.887675375E0,1.076789028E0,-1.921862841E0,2.528679572E-2,2.203104812E0
7.897691375E0,1.039837110E0,-1.612588402E0,3.439261349E-1,1.949355729E0
7.907706375E0,9.631833293E-1,-1.370600798E0,5.753403655E-1,1.771238326E0
7.917721375E0,8.631203663E-1,-1.216523157E0,6.033941368E-1,1.609033823E0
7.927736375E0,6.628451903E-1,-1.321807537E0,4.956872550E-1,1.559565570E0
7.937752375E0,4.606920348E-1,-1.486660427E0,4.015307108E-1,1.607365325E0
7.947767375E0,9.823673129E-2,-1.699479196E0,4.369777746E-1,1.757506634E0
7.957782375E0,-3.932946883E-1,-1.905509933E0,6.375874845E-1,2.047478111E0
7.967797375E0,-7.901709424E-1,-1.812019971E0,1.064745153E0,2.245321521E0
7.977813375E0,-9.734785219E-1,-1.886907601E0,1.612196639E0,2.665944247E0
7.987828375E0,-8.982178397E-1,-1.991798463E0,1.819979786E0,2.843656594E0
7.997843375E0,-1.066604348E0,-1.944848245E0,1.899503088E0,2.920306750E0
8.007858375E0,-1.242740171E0,-1.823800941E0,1.802804174E0,2.849694001E0
8.017874375E0,-1.197630949E0,-1.614235563E0,1.265680260E0,2.375294269E0
8.027889375E0,-1.167093573E0,-1.523568052E0,3.854439242E-1,1.957532640E0
8.037904375E0,-1.162083167E0,-1.759572785E0,-5.846875783E-1,2.188239758E0
8.047919375E0,-7.100828721E-1,-1.608817533E0,-1.166828183E0,2.110450081E0
8.057935375E0,7.365167454E-2,-6.418243039E-1,-1.252386908E0,1.409196925E0
8.067950375E0,4.684821340E-1,4.766299367E-1,-1.216212670E0,1.387740921E0
8.077965375E0,7.265510434E-1,1.476249459E0,-9.319993973E-1,1.890981693E0
8.087980375E0,8.433528306E-1,1.567294700E0,-3.435495742E-1,1.812645300E0
8.097995375E0,9.450202695E-1,1.260639229E0,4.481493187E-1,1.638020875E0
8.108011375E0,8.497361628E-1,1.174778715E0,1.185319564E0,1.872735711E0
8.118026375E0,-4.156946406E-2,8.698013949E-1,1.381794122E0,1.633290386E0
8.128041375E0,-1.520596789E0,9.264147216E-1,-3.906840527E-1,1.822935232E0
8.138056375E0,-1.902881024E0,2.090593604E0,-2.951661597E0,4.087033643E0
8.148072375E0,-3.233847933E-1,4.850726144E0,-3.193307140E0,5.816470781E0
8.158087375E0,1.534486996E0,7.911079295E0,-4.635263264E-1,8.071845056E0
8.168102375E0,2.129175287E0,8.203770445E0,1.909788340E0,8.688068164E0
8.178117375E0,1.733777501E0,5.354715203E0,1.275045015E0,5.771022363E0
8.188133375E0,1.371846985E0,1.882659599E0,-3.288006306E-1,2.352547804E0
8.198148375E0,6.966086215E-1,-1.829763347E-1,-6.969202781E-1,1.002218432E0
8.208163375E0,3.319116417E-1,-6.169367999E-1,1.450752767E-1,7.154181916E-1
8.218178375E0,-2.199883327E-1,-6.105726904E-1,-5.818868351E-1,8.716571376E-1
8.228194375E0,-1.125613571E0,-6.816239619E-1,-2.021985884E0,2.412476746E0
8.238209375E0,-1.463856724E0,-8.377931517E-1,-2.875312164E0,3.333495750E0
8.248224375E0,-7.938785157E-1,-7.341880918E-1,-3.060341456E0,3.245761094E0
8.258239375E0,1.889754318E-1,-2.811879230E-1,-3.312061751E0,3.329343990E0
8.268255375E0,1.333625052E0,3.673823136E-1,-3.687291613E0,3.938228660E0
8.278270375E0,2.547314941E0,1.159906322E0,-3.559497206E0,4.528158173E0
8.288285375E0,3.460750305E0,1.875672176E0,-3.406124740E0,5.205441819E0
8.298300375E0,4.325730963E0,2.514340737E0,-3.064365510E0,5.867213452E0
8.308316375E0,5.052317675E0,2.959056571E0,-2.409563895E0,6.331502811E0
8.318331375E0,5.440472807E0,2.689362520E0,-1.938740244E0,6.371038287E0
8.328346375E0,5.423354498E0,1.574423041E0,-1.644836966E0,5.881927453E0
8.338361375E0,4.794560714E0,1.153322357E-1,-1.408031749E0,4.998366470E0
8.348376375E0,3.854815511E0,-1.035142527E0,-1.110189640E0,4.142902812E0
8.358392375E0,2.882752746E0,-1.590536798E0,-6.678816895E-1,3.359484581E0
8.368407375E0,1.949432462E0,-1.874896250E0,-2.414853287E-1,2.715481180E0
8.378422375E0,1.258362762E0,-1.792686737E0,1.199439347E-1,2.193533480E0
8.388437375E0,9.030597728E-1,-1.674346694E0,1.590010694E-1,1.908987990E0
8.398453375E0,9.093101540E-1,-1.449373317E0,-1.267021465E-1,1.715686860E0
8.408468375E0,8.333400585E-1,-8.481865776E-1,-5.959751165E-1,1.330061075E0
8.418483375E0,6.752563441E-1,-7.937478304E-2,-9.987465334E-1,1.208207815E0
8.428498375E0,8.029732749E-1,6.919846433E-1,-1.228192445E0,1.622364173E0
8.438514375E0,1.048961691E0,1.426120110E0,-1.116263800E0,2.092888929E0
8.448529375E0,1.332007420E0,1.860437840E0,-7.029943657E-1,2.393673704E0
8.458544375E0,1.688276808E0,1.862673231E0,-2.478985548E-1,2.526120314E0
8.468559375E0,1.886516276E0,1.539985864E0,5.841616943E-2,2.435962350E0
8.478575375E0,1.755325514E0,1.075728636E0,2.765172402E-1,2.077214852E0
8.488590375E0,1.409325884E0,5.662566429E-1,2.684048863E-1,1.542364164E0
8.498605375E0,9.410295448E-1,9.765025556E-2,-1.243995130E-3,9.460833600E-1
8.508620375E0,5.263198677E-1,-2.111721933E-1,-2.825373141E-1,6.335879041E-1
8.518636375E0,2.787774083E-1,-4.088934517E-1,-4.140156126E-1,6.452283516E-1
8.528651375E0,3.240442130E-1,-5.314668792E-1,-3.796353002E-1,7.290985234E-1
8.538666375E0,6.391132423E-1,-6.145341790E-1,-2.291839564E-1,9.157746882E-1
8.548681375E0,1.041783210E0,-7.480226040E-1,-6.402818084E-2,1.284114357E0
8.558696375E0,1.417971138E0,-9.627399641E-1,1.517220899E-2,1.713983834E0
8.568712375E0,1.725144234E0,-1.307234522E0,3.243567467E-2,2.164725570E0
8.578727375E0,1.957483786E0,-1.720623313E0,-9.003878877E-2,2.607756572E0
8.588742375E0,2.205972617E0,-2.117979038E0,-3.543716741E-1,3.078592159E0
8.598757375E0,2.554820427E0,-2.501309633E0,-5.962801950E-1,3.624804458E0
8.608773375E0,2.848453271E0,-2.876865769E0,-5.685236084E-1,4.088185635E0
8.618788375E0,3.133453871E0,-3.303227777E0,-2.172405799E-1,4.558183891E0
8.628803375E0,3.359669196E0,-3.619870877E0,3.870318818E-1,4.953850619E0
8.638818375E0,3.335121415E0,-3.553275769E0,1.140146095E0,5.004871293E0
8.648833375E0,2.947877280E0,-2.951134179E0,1.861985013E0,4.567949385E0
8.658849375E0,2.168938254E0,-1.772778722E0,1.802039359E0,3.330823231E0
8.668864375E0,1.162661530E0,-2.838361269E-1,9.470571470E-1,1.526192000E0
8.678879375E0,-7.094295189E-2,9.714341891E-1,-2.474165981E-1,1.004953859E0
8.688894375E0,-1.098806719E0,1.683501095E0,-1.539843338E0,2.532324949E0
8.698910375E0,-1.485743437E0,2.155670190E0,-2.420966843E0,3.565869878E0
8.708925375E0,-1.534819703E0,2.933467986E0,-2.488978440E0,4.141970499E0
8.718940375E0,-1.395349138E0,3.762464002E0,-2.048060957E0,4.505295580E0
8.728955375E0,-1.319650938E0,3.969108111E0,-1.955956786E0,4.617473849E0
8.738971375E0,-1.327104530E0,3.753781471E0,-2.147235582E0,4.523571864E0
8.748987500E0,-1.337113940E0,3.249562617E0,-2.117709628E0,4.102709465E0
8.759002500E0,-1.287657897E0,2.542702072E0,-1.487716580E0,3.215073454E0
8.769017500E0,-1.397618004E0,1.926709013E0,-5.235282607E-1,2.437134700E0
8.779033500E0,-1.625800478E0,1.787872140E0,2.524944663E-1,2.429705216E0
8.789048500E0,-1.812797212E0,1.749178775E0,7.608128035E-1,2.631481758E0
8.799063500E0,-1.763422300E0,1.324426505E0,1.024584356E0,2.431776486E0
8.809078500E0,-1.573860831E0,9.826076335E-1,6.859734133E-1,1.978159549E0
8.819093500E0,-1.539892163E0,9.953808761E-1,7.440114141E-2,1.835098496E0
8.829109500E0,-1.458869634E0,1.021124412E0,-5.000807798E-1,1.849615220E0
8.839124500E0,-9.510991810E-1,8.473504257E-1,-8.753024554E-1,1.545557111E0
8.849139500E0,-4.903572987E-1,4.097009522E-1,-8.804702246E-1,1.087903014E0
8.859154500E0,-1.696424903E-1,-2.079936469E-1,-7.261212730E-1,7.741395448E-1
8.869170500E0,5.815129057E-2,-8.975511110E-1,-4.414633200E-1,1.001932848E0
8.879185500E0,2.379004008E-1,-1.474679482E0,-2.571605444E-3,1.493747900E0
8.889200500E0,3.903865756E-1,-1.911469415E0,3.932556581E-1,1.990167585E0
8.899215500E0,4.307835267E-1,-2.206636276E0,7.558881323E-1,2.371958046E0
8.909231500E0,3.976470633E-1,-2.293922342E0,1.024959455E0,2.543765866E0
8.919246500E0,1.911125891E-1,-2.160278381E0,1.194257398E0,2.475798344E0
8.929261500E0,-5.242467374E-2,-1.895906466E0,1.256056767E0,2.274838076E0
8.939276500E0,-2.680924988E-1,-1.556541671E0,1.267139579E0,2.024929202E0
8.949291500E0,-5.029538092E-1,-1.160184065E0,1.186086645E0,1.733721756E0
8.959307500E0,-8.197629699E-1,-8.748118740E-1,1.153682838E0,1.663818269E0
8.969322500E0,-1.144122348E0,-8.032513100E-1,1.192311591E0,1.837344699E0
8.979337500E0,-1.430394863E0,-8.313664770E-1,1.238513073E0,2.066667442E0
8.989352500E0,-1.690426829E0,-8.702750194E-1,1.265366703E0,2.283872669E0
8.999368500E0,-1.845491772E0,-8.551693225E-1,1.226674508E0,2.375265206E0
9.009383500E0,-1.907783915E0,-8.201673049E-1,1.213324145E0,2.405092380E0
9.019398500E0,-2.008170083E0,-8.157275140E-1,1.210049704E0,2.482413895E0
9.029413500E0,-2.170898679E0,-7.693561703E-1,1.235526023E0,2.613663051E0
9.039429500E0,-2.296378173E0,-6.837652123E-1,1.226521311E0,2.691698739E0
9.049444500E0,-2.354906901E0,-5.838918453E-1,1.124068445E0,2.673957006E0
9.059459500E0,-2.344928627E0,-5.037639409E-1,9.635652986E-1,2.584748820E0
9.069474500E0,-2.282146927E0,-3.642178005E-1,8.105540438E-1,2.449050236E0
9.079489500E0,-2.189965718E0,-2.460245222E-1,7.472477017E-1,2.326984538E0
9.089505500E0,-2.143218837E0,-1.585612857E-1,8.471220919E-1,2.310009633E0
9.099520500E0,-2.144630355E0,-1.107497728E-1,1.070321423E0,2.399435938E0
9.109535500E0,-2.267283305E0,-1.501600063E-1,1.294632018E0,2.615185208E0
9.119550500E0,-2.485287677E0,-2.875140256E-1,1.463553108E0,2.898500794E0
9.129566500E0,-2.711114747E0,-5.856810933E-1,1.575637507E0,3.189952832E0
9.139581500E0,-2.968075317E0,-9.065944147E-1,1.478677516E0,3.437713152E0
9.149596500E0,-3.185586476E0,-1.170688587E0,8.817317614E-1,3.506554415E0
9.159611500E0,-3.180145642E0,-1.060574407E0,-3.658332400E-1,3.372236400E0
9.169626500E0,-2.703285033E0,-4.691817534E-1,-1.683775621E0,3.219158559E0
9.179642500E0,-1.743188303E0,5.655701798E-1,-2.609592465E0,3.188816069E0
9.189657500E0,-6.257234839E-1,1.896004114E0,-2.753248321E0,3.400990708E0
9.199672500E0,2.619505835E-1,2.963195230E0,-2.023909618E0,3.597965289E0
9.209687500E0,9.800768124E-1,3.327770296E0,-4.594011158E-2,3.469397094E0
9.219703500E0,1.223924928E0,2.537599207E0,2.450170762E0,3.733729868E0
9.229718500E0,9.397145791E-1,8.361407286E-1,4.027245222E0,4.219111149E0
9.239733500E0,-1.324955678E-1,-8.763415056E-1,4.423346136E0,4.511265958E0
9.249748500E0,-9.456304264E-1,-1.413611162E0,3.847617588E0,4.206741557E0
9.259764500E0,-1.192815986E0,-8.649786115E-1,3.054491609E0,3.391300188E0
9.269779500E0,-1.436529762E0,-4.295054716E-1,2.123404085E0,2.599411013E0
9.279794500E0,-1.192995423E0,-8.972610891E-2,1.381883146E0,1.827810133E0
9.289809500E0,-5.894256137E-1,1.473317081E-1,1.043574943E0,1.207550350E0
9.299824500E0,-1.415275060E-1,3.895795137E-1,8.848752245E-1,9.771419525E-1
9.309840500E0,2.055777601E-1,6.581614244E-1,8.618380719E-1,1.103722582E0
9.319855500E0,4.952494813E-1,1.056051586E0,1.208436750E0,1.679534572E0
9.329870500E0,9.980486682E-1,1.681131803E0,1.802612386E0,2.659269955E0
9.339885500E0,1.604233316E0,2.534007847E0,2.262495897E0,3.756813541E0
9.349901500E0,1.794670697E0,3.147007132E0,2.159525406E0,4.217587792E0
9.359916500E0,1.526190236E0,3.124307072E0,1.622556881E0,3.837087717E0
9.369931500E0,8.162739363E-1,2.286021000E0,1.237654556E0,2.724698873E0
9.379946500E0,3.497455398E-2,1.113704547E0,1.464241179E0,1.839990018E0
9.389961500E0,-2.901937862E-1,4.252270639E-1,1.872581630E0,1.942058818E0
9.399977500E0,-6.598144323E-1,-3.181236148E-2,1.989919461E0,2.096698970E0
9.409992500E0,-1.011240571E0,-4.046904731E-1,1.768733618E0,2.077209784E0
9.420007500E0,-1.203701967E0,-7.361989492E-1,1.535304729E0,2.085197336E0
9.430022500E0,-1.293617233E0,-9.502567434E-1,1.286441238E0,2.057028071E0
9.440038500E0,-1.241231151E0,-9.240360743E-1,1.158969744E0,1.933315366E0
9.450053500E0,-1.141398422E0,-8.161713177E-1,1.282350526E0,1.900881072E0
9.460068500E0,-1.090047297E0,-5.958698666E-1,1.494352147E0,1.943283908E0
9.470083500E0,-1.096876845E0,-3.605077422E-1,1.596716720E0,1.970433691E0
9.480098500E0,-1.223425795E0,-1.520036334E-1,1.824801692E0,2.202220923E0
9.490114500E0,-1.248193139E0,2.998218298E-2,1.846058075E0,2.228635336E0
9.500129500E0,-1.305253485E0,1.686605966E-1,1.757970356E0,2.196040261E0
9.510144500E0,-1.363719794E0,2.974987310E-1,1.699642041E0,2.199322677E0
9.520159500E0,-1.401182905E0,3.538454247E-1,1.743238296E0,2.264376266E0
9.530175500E0,-1.422811171E0,4.133303189E-1,1.989698436E0,2.480752597E0
9.540190500E0,-1.395530401E0,4.560892528E-1,2.226071544E0,2.666630276E0
9.550205500E0,-1.404138672E0,5.075973755E-1,2.437806239E0,2.858698964E0
9.560220500E0,-1.540435807E0,5.767523950E-1,2.587500807E0,3.066063638E0
9.570235500E0,-1.777906438E0,6.450110364E-1,2.666257832E0,3.268932756E0
9.580251500E0,-2.001448416E0,6.484246409E-1,2.643993681E0,3.378898173E0
9.590266500E0,-2.113897097E0,5.811185110E-1,2.538117270E0,3.353848378E0
9.600281500E0,-2.120569940E0,5.903886867E-1,2.519554992E0,3.345673778E0
9.610296500E0,-2.173562378E0,5.704730701E-1,2.559194144E0,3.405772688E0
9.620312500E0,-2.176249466E0,5.239707488E-1,2.501577727E0,3.356858384E0
9.630327500E0,-2.150264147E0,4.001623893E-1,2.404842561E0,3.250697400E0
9.640342500E0,-2.056400549E0,2.290652579E-1,2.253868915E0,3.059604418E0
9.650357500E0,-1.917112563E0,4.842079282E-2,2.137850508E0,2.871945325E0
9.660372500E0,-1.701467834E0,-1.040079331E-1,2.105137676E0,2.708766338E0
9.670388500E0,-1.506003016E0,-2.489522231E-1,2.174837656E0,2.657054972E0
9.680403500E0,-1.450746828E0,-2.398966402E-1,2.379958858E0,2.797574114E0
9.690418500E0,-1.523799602E0,-9.404369295E-2,2.582977109E0,3.000430001E0
9.700433500E0,-1.696265859E0,2.341453189E-1,2.714395912E0,3.209374871E0
9.710449500E0,-1.837864372E0,5.875083482E-1,2.788768987E0,3.391186219E0
9.720464500E0,-1.753882275E0,7.883017337E-1,2.660445700E0,3.282604755E0
9.730479500E0,-1.217817146E0,8.043950254E-1,2.054292920E0,2.519970110E0
9.740494500E0,-1.610033388E-1,6.135565245E-1,7.019152620E-1,9.460754299E-1
9.750507958E0,-2.744577412E-1,2.535639220E-1,-4.687417504E-1,5.994502005E-1
9.760523958E0,-1.725867096E0,-9.008512795E-2,-1.354570948E0,2.195813065E0
9.770538958E0,-2.515185075E0,-1.936176825E-1,-2.764156302E0,3.742219105E0
9.780553958E0,-2.308011208E0,-9.840220749E-2,-4.325627760E0,4.903840765E0
9.790568958E0,-1.754556752E0,-3.521421307E-1,-5.088503754E0,5.394010004E0
9.800584958E0,-1.066392971E0,-1.127152559E0,-4.938185288E0,5.176228433E0
9.810599958E0,-3.060622707E-1,-1.720626821E0,-4.625379131E0,4.944528580E0
9.820614958E0,1.112744727E0,-1.684596278E0,-4.052994021E0,4.528004636E0
9.830629958E0,2.403252996E0,-8.996303809E-1,-3.066414666E0,3.998482048E0
9.840644958E0,2.824355141E0,4.385218781E-1,-1.897900951E0,3.430934482E0
9.850660958E0,2.916178939E0,2.143563530E0,-8.861465554E-1,3.726153503E0
9.860675958E0,2.834185480E0,3.850828294E0,-1.055749869E-1,4.782534053E0
9.870690958E0,1.942381013E0,5.300375859E0,2.299462871E-1,5.649752520E0
9.880705958E0,2.371031512E-1,5.938843861E0,1.058721717E-1,5.944517913E0
9.890720958E0,-1.628119776E0,5.024472649E0,-5.626939344E-1,5.311565106E0
9.900736958E0,-3.032154953E0,3.759992384E0,-1.267254331E0,4.993740074E0
9.910751958E0,-3.895543414E0,2.964530734E0,-1.411779814E0,5.094783922E0
9.920766958E0,-4.232845311E0,2.050782251E0,-1.553809705E0,4.953484821E0
9.930781958E0,-4.159648112E0,8.812970209E-1,-1.618085954E0,4.549457001E0
9.940797958E0,-3.691617967E0,-3.703643936E-1,-1.199759774E0,3.899312313E0
9.950812958E0,-2.767236030E0,-1.382510406E0,-7.125359984E-1,3.174372036E0
9.960827958E0,-1.614287895E0,-2.137916874E0,-1.861719842E-1,2.685381533E0
9.970842958E0,-4.063597070E-1,-2.639524362E0,1.011793426E-1,2.672537058E0
9.980857958E0,5.076698810E-1,-2.871295711E0,1.871822369E-1,2.921832466E0
9.990873958E0,9.610155471E-1,-2.923903695E0,1.972615211E-1,3.084100486E0
1.000088896E1,1.197478556E0,-2.589258773E0,5.615680531E-2,2.853308513E0
1.001090396E1,1.274192929E0,-2.202146784E0,4.935766295E-2,2.544691388E0
1.002091896E1,1.305879868E0,-1.959960959E0,3.511391871E-1,2.381190441E0
1.003093496E1,1.240229231E0,-1.774264500E0,7.207324791E-1,2.281586809E0
1.004094996E1,9.149245043E-1,-1.672841620E0,8.300602090E-1,2.079539826E0
1.005096496E1,4.234413242E-1,-1.705441017E0,6.331517136E-1,1.867809602E0
1.006097996E1,-3.097680898E-1,-1.815986137E0,2.772328663E-1,1.862960006E0
1.007099496E1,-1.169361708E0,-1.866846389E0,-6.555196524E-2,2.203819254E0
1.008101096E1,-2.001738730E0,-1.775787699E0,-1.420743303E-1,2.679657630E0
1.009102596E1,-2.630885978E0,-1.689809071E0,1.126373271E-1,3.128850091E0
1.010104096E1,-2.868149617E0,-1.632484138E0,6.041741554E-1,3.355042935E0
1.011105596E1,-2.885358265E0,-1.640677841E0,1.127179602E0,3.505374438E0
1.012107096E1,-2.759823807E0,-1.653735843E0,1.540377628E0,3.567104277E0
1.013108696E1,-2.571418625E0,-1.553067255E0,1.895183165E0,3.551891169E0
1.014110196E1,-2.396974694E0,-1.362119996E0,2.189687683E0,3.520737241E0
1.015111696E1,-2.224431985E0,-1.141441984E0,2.585006093E0,3.596281963E0
1.016113196E1,-2.107056001E0,-9.761376894E-1,2.957769891E0,3.760443127E0
1.017114796E1,-2.098501524E0,-8.719695425E-1,2.726713656E0,3.549507979E0
1.018116296E1,-2.009102129E0,-8.384082788E-1,2.015990441E0,2.967092392E0
1.019117796E1,-1.798521089E0,-9.056828338E-1,1.281503995E0,2.386879132E0
1.020119296E1,-1.409872306E0,-9.015605468E-1,3.752558818E-1,1.715041782E0
1.021120796E1,-1.022947355E0,-5.051468074E-1,-5.104983254E-1,1.249881246E0
1.022122396E1,-7.499928233E-1,3.505481797E-1,-1.203951058E0,1.461119917E0
1.023123896E1,-4.492646751E-1,1.142758777E0,-1.272609065E0,1.768408947E0
1.024125396E1,-1.749057884E-1,1.119075800E0,-9.271042545E-1,1.463709322E0
1.025126896E1,-4.664236218E-2,5.963236105E-1,6.244943261E-2,6.013961174E-1
1.026128396E1,-2.528619638E-1,1.854491222E-1,2.704261225E0,2.722381187E0
1.027129996E1,-1.775893241E0,-9.088151872E-2,5.020991217E0,5.326575735E0
1.028131496E1,-3.239580250E0,4.673235083E-1,2.657619156E0,4.216184417E0
1.029132996E1,-2.610302902E0,1.827502229E0,-2.414203076E0,3.997727120E0
1.030134496E1,-2.405027041E-1,6.084728383E0,-4.579078538E0,7.619036770E0
1.031136096E1,1.668614376E0,9.551404549E0,-2.270324149E0,9.958311832E0
1.032137596E1,2.360076863E0,8.721924384E0,-1.525173697E0,9.163409985E0
1.033139096E1,2.579501816E0,5.006750323E0,-2.411513357E0,6.126726295E0
1.034140596E1,2.477575200E0,1.990826656E0,-7.573231121E-1,3.267308975E0
1.035142096E1,1.655979712E0,4.723410040E-1,1.056663497E-1,1.725265258E0
1.036143696E1,3.582267433E-1,-3.727284229E-1,-2.856923986E-1,5.906547414E-1
1.037145196E1,-8.191887733E-1,-1.147856380E0,-9.765657055E-1,1.715320697E0
1.038146696E1,-1.443685146E0,-1.382811538E0,-1.477738745E0,2.485981969E0
1.039148196E1,-1.644111473E0,-1.173592315E0,-1.610837599E0,2.583644563E0
1.040149696E1,-1.316600299E0,-8.924043918E-1,-1.905557149E0,2.482130132E0
1.041151296E1,-8.036721633E-1,-4.479639620E-1,-2.273535440E0,2.452656530E0
1.042152796E1,-9.595602483E-2,3.083382994E-1,-2.271942658E0,2.294777442E0
1.043154296E1,9.756707892E-1,8.502114683E-1,-2.034023985E0,2.410818658E0
1.044155796E1,2.189672334E0,9.585814244E-1,-1.798598711E0,2.991404453E0
1.045157296E1,3.365471388E0,8.371031803E-1,-1.568033496E0,3.806030536E0
1.046158896E1,4.084919234E0,4.802750909E-1,-1.372254829E0,4.335932728E0
1.047160396E1,4.355020251E0,6.932634294E-2,-1.051857816E0,4.480782565E0
1.048161896E1,4.247611285E0,-4.855837780E-1,-6.781170943E-1,4.328722217E0
1.049163396E1,3.654843074E0,-1.160350125E0,-2.260368387E-1,3.841273612E0
1.050164896E1,2.942368618E0,-1.755862142E0,1.464353299E-1,3.429581352E0
1.051166496E1,2.290794959E0,-2.126102575E0,2.462598726E-1,3.135075378E0
1.052167996E1,1.561298380E0,-2.392556684E0,2.495240808E-1,2.867793993E0
1.053169496E1,9.250985134E-1,-2.449444245E0,3.697616918E-1,2.644297275E0
1.054170996E1,4.559381754E-1,-2.395669742E0,5.079068394E-1,2.491000299E0
1.055172596E1,-1.238981143E-2,-2.021469575E0,4.107876572E-1,2.062823126E0
1.056174096E1,-3.147213393E-1,-1.328855771E0,2.767734213E-1,1.393381035E0
1.057175596E1,-5.196914640E-1,-7.243156528E-1,8.089739799E-2,8.951294720E-1
1.058177096E1,-6.386581828E-1,-1.215104038E-1,1.248313299E-1,6.619908712E-1
1.059178596E1,-7.117336142E-1,5.195087385E-1,4.496921065E-1,9.892810812E-1
1.060180196E1,-6.693148421E-1,9.483528900E-1,1.006825924E0,1.536572160E0
1.061181696E1,-6.146398674E-1,1.077026133E0,1.513061775E0,1.956303502E0
1.062183196E1,-6.435635582E-1,8.969605422E-1,1.616355178E0,1.957374857E0
1.063184696E1,-9.945445780E-1,4.391177094E-1,1.531118854E0,1.877836049E0
1.064186196E1,-1.352089097E0,3.600423038E-2,1.592593410E0,2.089448492E0
1.065187796E1,-1.518820405E0,-1.872927493E-1,1.718733785E0,2.301290903E0
1.066189296E1,-1.453802876E0,-2.348791444E-1,1.898214069E0,2.402483645E0
1.067190796E1,-1.186145775E0,-2.300832582E-1,2.092037574E0,2.415885203E0
1.068192296E1,-8.838501345E-1,-1.640453893E-1,2.238500386E0,2.412257434E0
1.069193796E1,-6.499561729E-1,-7.760073781E-2,2.315038977E0,2.405799319E0
1.070195396E1,-5.296339233E-1,-1.053522080E-1,2.264017342E0,2.327527810E0
1.071196896E1,-5.374498965E-1,-2.197149754E-1,2.107313132E0,2.185839816E0
1.072198396E1,-5.103630354E-1,-3.482163101E-1,1.950743701E0,2.046246811E0
1.073199896E1,-4.845901168E-1,-5.096877551E-1,1.861712241E0,1.990121016E0
1.074201396E1,-4.902424009E-1,-5.908295667E-1,2.009315844E0,2.150992178E0
1.075203021E1,-6.149313511E-1,-8.188013953E-1,2.249242598E0,2.471369773E0
1.076204521E1,-1.050522459E0,-1.107538658E0,2.480407591E0,2.912500838E0
1.077206021E1,-1.825802151E0,-1.001579509E0,2.629910662E0,3.354570777E0
1.078207521E1,-2.596368402E0,-6.518891162E-1,2.721175759E0,3.817182968E0
1.079209121E1,-2.959115628E0,-1.624046606E-1,2.547030474E0,3.907698147E0
1.080210621E1,-2.688932165E0,4.191225708E-1,2.063871536E0,3.415492005E0
1.081212121E1,-2.001967941E0,7.858973587E-1,1.538059499E0,2.644075891E0
1.082213621E1,-6.374101677E-1,8.978534120E-1,7.312370020E-1,1.321794244E0
1.083215121E1,9.846306239E-1,9.668049484E-1,8.159877151E-2,1.382341359E0
1.084216621E1,1.147042594E0,6.987539649E-1,-1.793101305E-1,1.355033556E0
1.085218221E1,2.770223665E-1,-3.901145339E-2,-8.886247516E-1,9.316207566E-1
1.086219721E1,-4.932776906E-1,-5.654450494E-1,-1.946258301E0,2.085898454E0
1.087221221E1,-2.483025974E-1,-9.898289448E-1,-2.982393394E0,3.152155750E0
1.088222721E1,-6.494110662E-1,-1.570799521E0,-3.623632099E0,4.002481162E0
1.089224321E1,-1.000252338E0,-2.119536152E0,-3.729862559E0,4.405089437E0
1.090225821E1,9.678720653E-2,-2.377374389E0,-3.531705975E0,4.258429739E0
1.091227321E1,1.805623994E0,-2.216770086E0,-3.175691526E0,4.273097739E0
1.092228821E1,3.362585787E0,-1.305728279E0,-2.895693219E0,4.625683596E0
1.093230321E1,4.492283054E0,3.425866109E-1,-2.459194185E0,5.132797353E0
1.094231821E1,4.485759900E0,2.562153420E0,-1.928423709E0,5.514117339E0
1.095233421E1,3.242141916E0,5.011367285E0,-2.009132388E0,6.297769384E0
1.096234921E1,1.726013568E0,7.308418472E0,-1.734888765E0,7.707265561E0
1.097236421E1,-1.698578140E-1,8.849548636E0,-7.468344498E-1,8.882630491E0
1.098237921E1,-2.047420541E0,7.948428969E0,-3.665679426E-1,8.216071203E0
1.099239521E1,-3.507406993E0,5.813256193E0,-4.888215275E-1,6.806966863E0
1.100241021E1,-4.594139212E0,4.026588580E0,-7.305452764E-1,6.152497630E0
1.101242521E1,-5.215263788E0,2.167900811E0,-1.175133495E0,5.768856822E0
1.102244021E1,-5.198616765E0,4.102997071E-1,-8.402998531E-1,5.282051302E0
1.103245521E1,-4.483635607E0,-8.557633996E-1,7.319084086E-2,4.565158940E0
1.104247121E1,-3.438182684E0,-1.482372664E0,1.147709030E0,3.916090512E0
1.105248621E1,-2.150337676E0,-2.103275045E0,1.585847915E0,3.400386985E0
1.106250121E1,-7.046866961E-1,-2.285736240E0,1.161306145E0,2.658910578E0
1.107251621E1,3.438710980E-1,-2.279982580E0,4.540093982E-1,2.350040942E0
1.108253121E1,1.130656210E0,-2.415352054E0,-3.045535429E-1,2.684224631E0
1.109254721E1,1.773237436E0,-2.446219506E0,-1.067226784E0,3.204268073E0
1.110256221E1,2.267592915E0,-2.362648761E0,-1.372676998E0,3.550820882E0
1.111257721E1,2.550210190E0,-2.300186464E0,-8.389840834E-1,3.535296886E0
1.112259221E1,2.678278538E0,-2.152619698E0,7.006499246E-2,3.436838168E0
1.113260721E1,2.575404380E0,-2.086780635E0,8.149382861E-1,3.413427244E0
1.114262321E1,2.219765760E0,-2.261318268E0,1.101153791E0,3.354617715E0
1.115263821E1,1.831463717E0,-2.384034952E0,9.252612121E-1,3.145471397E0
1.116265321E1,1.398580163E0,-2.311431245E0,5.271804316E-1,2.752573356E0
1.117266821E1,6.673245960E-1,-2.094465630E0,2.586644483E-1,2.213372018E0
1.118268321E1,-8.040243119E-2,-1.783073330E0,1.737244315E-1,1.793319611E0
1.119269921E1,-5.360972893E-1,-1.482171519E0,4.091391809E-1,1.628381892E0
1.120271421E1,-6.354862145E-1,-1.463580297E0,1.028826803E0,1.898524323E0
1.121272921E1,-4.384676452E-1,-1.539260225E0,1.646979386E0,2.296544581E0
1.122274421E1,-2.559782374E-1,-1.425397394E0,2.121843463E0,2.568949644E0
1.123275921E1,-1.656346625E-1,-1.287026544E0,2.393998607E0,2.723068398E0
1.124277421E1,-1.876503065E-2,-9.523798674E-1,2.373327677E0,2.557354844E0
1.125279021E1,7.888113186E-2,-6.174145174E-1,2.205128718E0,2.291291248E0
1.126280521E1,-3.945935011E-2,-5.218856317E-1,1.921508499E0,1.991511126E0
1.127282021E1,-7.897644147E-2,-5.780434602E-1,1.335420001E0,1.457298219E0
1.128283521E1,-4.397866309E-2,-7.124183232E-1,5.356587481E-1,8.924148612E-1
1.129285021E1,2.011391021E-1,-5.527758873E-1,-9.089058191E-3,5.883032644E-1
1.130286621E1,4.383564019E-1,-4.742091894E-3,-1.700113034E-1,4.701942852E-1
1.131288121E1,7.255514619E-1,1.226135395E0,-4.538620484E-1,1.495267096E0
1.132289621E1,8.393448566E-1,1.647119134E0,-8.142889528E-1,2.020041517E0
1.133291121E1,8.628413080E-1,1.069332367E0,-4.368791029E-2,1.374727415E0
1.134292621E1,1.071288406E0,4.255451524E-1,2.597945981E0,2.842194724E0
1.135294221E1,3.249193950E-1,-6.336218297E-1,5.246348755E0,5.294452238E0
1.136295721E1,-2.074957711E0,-8.614509863E-1,4.375446914E0,4.918544806E0
1.137297221E1,-3.430123174E0,6.683133602E-1,-1.907151246E-1,3.499822852E0
1.138298721E1,-1.778325537E0,3.958504186E0,-4.376408197E0,6.163209051E0
1.139300221E1,1.645376810E0,9.024471601E0,-5.100656022E0,1.049595371E1
1.140301821E1,3.914594227E0,1.192237448E1,-2.325797853E0,1.276230375E1
1.141303321E1,4.248012112E0,8.927665683E0,1.005323482E-1,9.887311475E0
1.142304821E1,2.397240304E0,1.912854035E0,1.041711874E0,3.238971328E0
1.143306321E1,6.890993348E-1,-6.672567683E-1,8.422750425E-1,1.276525258E0
1.144307821E1,-6.642711800E-1,-9.661944991E-1,1.243665347E0,1.709237112E0
1.145309421E1,-1.555745134E0,-9.256393808E-1,6.600524870E-1,1.926868047E0
1.146310921E1,-2.672830980E0,-1.118691638E0,-7.102778037E-1,2.983285267E0
1.147312421E1,-3.138761096E0,-9.770176953E-1,-2.160156759E0,3.933530478E0
1.148313921E1,-2.299672786E0,-2.022855949E-1,-2.888857824E0,3.697960777E0
1.149315421E1,-8.913605176E-1,8.701329321E-1,-3.229992571E0,3.461864656E0
1.150317021E1,8.675141104E-1,2.082678813E0,-2.915065921E0,3.686155327E0
1.151318521E1,2.933182642E0,2.786440333E0,-1.919876980E0,4.478139989E0
1.152320021E1,4.478043622E0,2.614371395E0,-1.277907811E0,5.340492566E0
1.153321521E1,5.277098678E0,1.913163353E0,-1.098598119E0,5.719692500E0
1.154323021E1,5.640086224E0,1.030426748E0,-1.057079526E0,5.830074530E0
1.155324621E1,5.834509653E0,2.859674370E-1,-7.743208949E-1,5.892610042E0
1.156326121E1,5.253864766E0,-6.063860840E-1,-3.535109639E-1,5.300544224E0
1.157327621E1,3.923203375E0,-1.702670606E0,-2.010714206E-1,4.281476572E0
1.158329121E1,2.361291183E0,-2.831926993E0,2.440654126E-1,3.695277320E0
1.159330621E1,1.171530294E0,-3.431015752E0,7.935307525E-1,3.711339836E0
1.160332121E1,3.623583859E-1,-3.538357183E0,9.702881348E-1,3.686832545E0
1.161333721E1,-9.344011411E-2,-3.422070097E0,7.549481924E-1,3.505601457E0
1.162335221E1,-3.205338371E-1,-2.988100861E0,5.565964580E-1,3.056352125E0
1.163336721E1,-3.434423509E-1,-2.266707062E0,3.903028142E-1,2.325564413E0
1.164338221E1,-1.516487074E-1,-1.407007901E0,8.363272548E-2,1.417625831E0
1.165339721E1,-1.133607008E-2,-4.966461253E-1,-1.653319229E-1,5.235652061E-1
1.166341321E1,1.851447015E-1,2.839209116E-1,-1.851914062E-1,3.862453902E-1
1.167342821E1,8.764246823E-1,8.218530571E-1,-1.156856999E-1,1.207040120E0
1.168344321E1,1.596483124E0,1.045234237E0,2.079294737E-1,1.919507135E0
1.169345821E1,1.769698701E0,8.262770605E-1,7.885625196E-1,2.106275889E0
1.170347321E1,1.760732873E0,2.190776289E-1,1.089609926E0,2.082168352E0
1.171348921E1,1.313708266E0,-7.143648612E-1,1.395629804E0,2.045465501E0
1.172350421E1,7.547705832E-1,-1.342883826E0,1.607812396E0,2.226673821E0
1.173351921E1,3.121362121E-1,-1.603244551E0,1.640383434E0,2.314882269E0
1.174353421E1,1.307271505E-1,-1.546334771E0,1.662689977E0,2.274374369E0
1.175354908E1,2.243366146E-1,-1.309491547E0,1.838777415E0,2.268523178E0
1.176356508E1,3.652477875E-1,-9.935290629E-1,2.097982146E0,2.349901068E0
1.177358008E1,3.841344403E-1,-6.912619275E-1,2.366249768E0,2.494902861E0
1.178359508E1,3.630676532E-1,-4.193149441E-1,2.573315170E0,2.632412222E0
1.179361008E1,3.356733017E-1,-1.578496796E-1,2.652102600E0,2.677917342E0
1.180362508E1,2.057116979E-1,3.798702121E-2,2.543706624E0,2.552293812E0
1.181364008E1,-4.181818999E-2,1.588314271E-1,2.410848529E0,2.416436801E0
1.182365608E1,-3.654864270E-1,1.093938035E-1,2.380817229E0,2.411190165E0
1.183367108E1,-4.866622970E-1,-1.308770585E-1,2.599080341E0,2.647487038E0
1.184368608E1,-9.812997575E-1,-4.994562972E-1,3.093085571E0,3.283227704E0
1.185370108E1,-1.811747783E0,-5.792819005E-1,3.718017561E0,4.176320406E0
1.186371608E1,-2.703768305E0,-4.471740031E-1,4.232131366E0,5.041950371E0
1.187373208E1,-3.623011417E0,-1.476802021E-1,4.263482383E0,5.596901214E0
1.188374708E1,-3.626800997E0,3.459481752E-1,3.676355273E0,5.175804643E0
1.189376208E1,-2.892431934E0,7.020623195E-1,2.349743371E0,3.792142917E0
1.190377708E1,-1.873826795E0,8.888375902E-1,1.090047297E0,2.342960142E0
1.191379208E1,-3.967701271E-1,9.119352615E-1,-1.577684033E-1,1.006947528E0
1.192380708E1,8.572942007E-1,5.612789083E-1,-1.117149142E0,1.515918720E0
1.193382308E1,3.721046712E-1,-2.563659078E-1,-1.177076378E0,1.260830744E0
1.194383808E1,-1.022317098E0,-1.116313575E0,-1.695857723E0,2.273152363E0
1.195385308E1,-1.785742876E0,-1.412370967E0,-2.402040575E0,3.309602438E0
1.196386808E1,-2.335254555E0,-1.415365911E0,-3.608056870E0,4.524903190E0
1.197388308E1,-2.700277225E0,-1.036555799E0,-4.640652058E0,5.468235231E0
1.198389908E1,-1.919627889E0,-3.997688717E-1,-4.896188538E0,5.274224927E0
1.199391408E1,-1.679834890E-1,-1.309659362E-1,-4.819901962E0,4.824606249E0
1.200392908E1,2.151470720E0,3.703439283E-1,-4.523375623E0,5.022639537E0
1.201394408E1,4.180576758E0,1.654195434E0,-4.311747347E0,6.229345853E0
1.202395908E1,6.050611049E0,3.597447390E0,-3.663537884E0,7.935554903E0
1.203397508E1,6.753237040E0,5.893872925E0,-2.512886535E0,9.309057273E0
1.204399008E1,5.644769844E0,7.810086771E0,-1.352733461E0,9.730918239E0
1.205400508E1,3.995178215E0,8.375849324E0,-5.538364260E-1,9.296399069E0
1.206402008E1,2.031899545E0,7.092888349E0,-8.313699853E-1,7.424880938E0
1.207403508E1,2.398497163E-1,4.609617961E0,-1.533573515E0,4.863944218E0
1.208405008E1,-8.945561671E-1,2.644338959E0,-1.770759094E0,3.305805051E0
1.209406608E1,-2.033646109E0,1.726223191E0,-1.545322033E0,3.082788216E0
1.210408108E1,-3.188273857E0,8.605674720E-1,-1.357615886E0,3.570544420E0
1.211409608E1,-4.111985118E0,-1.832371205E-1,-1.296875010E0,4.315539624E0
1.212411108E1,-4.517396260E0,-1.402120214E0,-1.085666490E0,4.852986894E0
1.213412608E1,-3.928937447E0,-2.403886834E0,-2.576574846E-1,4.613199405E0
1.214414208E1,-2.830238317E0,-2.899136644E0,4.603642984E-1,4.077643621E0
1.215415708E1,-1.741363971E0,-3.625922161E0,6.705165911E-1,4.077898049E0
1.216417208E1,-6.118294032E-1,-4.149207031E0,6.682138114E-1,4.246971145E0
1.217418708E1,2.462157992E-1,-3.948699574E0,4.817697123E-1,3.985593131E0
1.218420208E1,6.013772129E-1,-3.458020533E0,2.080217866E-1,3.516082141E0
1.219421708E1,6.982761012E-1,-3.241671799E0,2.739714356E-1,3.327324138E0
1.220423308E1,9.236295466E-1,-3.004053819E0,4.663199799E-1,3.177244909E0
1.221424808E1,1.311978514E0,-2.667484578E0,7.144912342E-1,3.057328788E0
1.222426308E1,1.439917493E0,-2.464516028E0,9.312813592E-1,3.002413464E0
1.223427808E1,1.285923759E0,-2.312286108E0,9.035222876E-1,2.795821790E0
1.224429308E1,7.602026466E-1,-2.145766177E0,7.279327404E-1,2.390001386E0
1.225430808E1,1.917271315E-1,-1.993512867E0,6.198903016E-1,2.096453393E0
1.226432408E1,-4.516022457E-1,-1.787314900E0,6.666748973E-1,1.960330217E0
1.227433908E1,-1.097516677E0,-1.606116704E0,9.320345537E-1,2.157044768E0
1.228435408E1,-1.616368773E0,-1.500579724E0,1.459500110E0,2.644717015E0
1.229436908E1,-1.847885769E0,-1.511899348E0,2.125906109E0,3.196873197E0
1.230438408E1,-1.657529955E0,-1.373210410E0,2.538898458E0,3.328530872E0
1.231440008E1,-1.659656588E0,-1.041974414E0,2.603075159E0,3.258246607E0
1.232441508E1,-1.734532669E0,-6.886031985E-1,2.563924541E0,3.171196462E0
1.233443008E1,-1.839387425E0,-5.355172455E-1,2.314784184E0,3.004721391E0
1.234444508E1,-1.988814483E0,-5.327053195E-1,1.492655139E0,2.543064562E0
1.235446008E1,-1.918680786E0,-6.757399088E-1,3.031255066E-1,2.056658809E0
1.236447608E1,-1.312740406E0,-7.431039262E-1,-1.063046171E0,1.845415395E0
1.237449108E1,-2.364546767E-1,-1.086623168E-1,-1.793302449E0,1.812084983E0
1.238450608E1,5.645283522E-1,8.070619404E-1,-1.568251012E0,1.851878094E0
1.239452108E1,1.109454645E0,2.100126904E0,-5.787154515E-1,2.444654208E0
1.240453608E1,1.455294939E0,2.656142734E0,-1.441117195E-1,3.032119023E0
1.241455108E1,1.808087426E0,2.509109234E0,-9.180128574E-2,3.094064764E0
1.242456708E1,1.567359020E0,1.633873436E0,1.365621893E0,2.644065025E0
1.243458208E1,3.051847498E-1,6.238043547E-2,4.328403726E0,4.339597661E0
1.244459708E1,-1.977905333E0,-1.072385783E0,5.508493466E0,5.950262267E0
1.245461208E1,-3.994732949E0,-7.607613480E-1,1.482952123E0,4.328486590E0
1.246462708E1,-3.213978217E0,1.281965194E0,-2.402554253E0,4.212523908E0
1.247464208E1,1.408993323E0,5.405050959E0,-2.923610165E0,6.304548711E0
1.248465808E1,5.053728023E0,8.143682703E0,-3.297930200E0,1.013588075E1
1.249467308E1,4.517527823E0,8.105012142E0,-3.903797636E0,1.006672317E1
1.250468808E1,4.424461784E0,7.345845330E0,-3.101179579E0,9.118915532E0
1.251470308E1,3.704087740E0,4.282143479E0,-1.287508940E0,5.806435914E0
1.252471808E1,1.870871758E0,2.212151370E0,-6.498689032E-1,2.969192552E0
1.253473408E1,-2.577663159E-1,9.502555740E-1,-2.424302387E-1,1.014002737E0
1.254474908E1,-2.288255513E0,-6.241785765E-1,-8.505593777E-2,2.373382965E0
1.255476408E1,-3.388710562E0,-1.149218781E0,-7.807635033E-1,3.662465662E0
1.256477908E1,-3.454049981E0,-1.018217177E0,-1.463354595E0,3.886982655E0
1.257479408E1,-2.978299758E0,-7.892384577E-1,-1.864557642E0,3.601352800E0
1.258481008E1,-2.648612689E0,-7.659513366E-1,-2.398558266E0,3.654437355E0
1.259482508E1,-1.715314626E0,-2.611588705E-1,-2.779959279E0,3.276992801E0
1.260484008E1,-2.900827074E-1,5.015554476E-1,-2.535050991E0,2.600420998E0
1.261485508E1,1.371054834E0,1.086992712E0,-1.942734038E0,2.614490401E0
1.262487008E1,3.080388927E0,1.445964391E0,-1.323146549E0,3.651071864E0
1.263488508E1,4.688900943E0,1.660658362E0,-6.895327596E-1,5.021855601E0
1.264490108E1,5.617964453E0,1.443710289E0,-3.223768795E-1,5.809453576E0
1.265491608E1,6.006935856E0,8.910384822E-1,8.023549318E-3,6.072667646E0
1.266493108E1,5.264911326E0,-2.258060199E-1,3.420245473E-1,5.280838988E0
1.267494608E1,3.811979978E0,-1.783908312E0,5.786135638E-1,4.248330716E0
1.268496108E1,2.664841636E0,-2.797908477E0,9.093040144E-1,3.969446635E0
1.269497708E1,1.845688531E0,-3.237225577E0,1.366086162E0,3.968927688E0
1.270499208E1,1.222565523E0,-3.307616698E0,1.324670042E0,3.766927846E0
1.271500708E1,7.318325409E-1,-3.281179097E0,1.013206698E0,3.511168316E0
1.272502208E1,2.127927491E-1,-3.035242867E0,8.308659554E-1,3.154095473E0
1.273503708E1,-3.245242694E-1,-2.495363599E0,7.863853088E-1,2.636390970E0
1.274505208E1,-6.949107362E-1,-1.880836437E0,6.659547396E-1,2.112804380E0
1.275506863E1,-7.663527480E-1,-1.264428810E0,4.946615803E-1,1.559091668E0
1.276508362E1,-4.038340022E-1,-5.185649979E-1,6.456200239E-1,9.213125277E-1
1.277509863E1,1.817981207E-1,2.044683605E-1,1.029244441E0,1.064989195E0
1.278511362E1,6.542730260E-1,6.507331216E-1,1.587169386E0,1.835928498E0
1.279512863E1,7.293158993E-1,7.511508644E-1,1.893749428E0,2.163889137E0
1.280514463E1,4.316385359E-1,6.639805734E-1,1.796849370E0,1.963631759E0
1.281515962E1,1.012057281E-1,3.788785243E-1,1.435594500E0,1.488194579E0
1.282517463E1,1.969663829E-2,-5.893408656E-2,1.060676733E0,1.062495325E0
1.283518962E1,2.700880073E-1,-5.155209374E-1,1.005616135E0,1.161883462E0
1.284520463E1,4.442685948E-1,-8.655475456E-1,1.373338172E0,1.683034424E0
1.285522063E1,4.317503639E-1,-1.012702668E0,1.933530667E0,2.224975485E0
1.286523562E1,4.312394634E-1,-9.944728035E-1,2.463705604E0,2.691614559E0
1.287525063E1,4.245964417E-1,-8.714058709E-1,2.905803055E0,3.063220809E0
1.288526562E1,1.894851628E-1,-8.253251338E-1,3.374201281E0,3.478836082E0
1.289528063E1,-3.493024305E-1,-8.272418511E-1,3.575177100E0,3.686221990E0
1.290529562E1,-1.091135026E0,-1.140997011E0,3.219162650E0,3.585450877E0
1.291531162E1,-1.582866566E0,-1.422971385E0,2.479882219E0,3.268046809E0
1.292532663E1,-2.078997406E0,-1.272132517E0,1.798759655E0,3.029205779E0
1.293534162E1,-2.653471726E0,-5.929632157E-1,1.411469911E0,3.063456362E0
1.294535663E1,-2.584706131E0,1.855947179E-1,1.333066643E0,2.914141015E0
1.295537162E1,-1.945595958E0,7.466666347E-1,1.565337345E0,2.606364460E0
1.296538762E1,-1.287151236E0,1.282471563E0,1.709536699E0,2.494796052E0
1.297540263E1,-3.915602580E-1,1.824086285E0,1.873651963E0,2.644084320E0
1.298541762E1,1.149642850E0,2.286756579E0,1.541256756E0,2.987709277E0
1.299543263E1,1.350877262E0,2.143565869E0,1.269547462E0,2.833989198E0
1.300544762E1,2.044620748E-1,1.079495997E0,-8.559125036E-2,1.102017336E0
1.301546362E1,-8.203921303E-2,-6.332183719E-2,-2.478903102E0,2.481068455E0
1.302547863E1,6.932211833E-1,-1.198107351E0,-4.856572483E0,5.049981497E0
1.303549362E1,7.497685826E-1,-2.077574193E0,-6.154048294E0,6.538407899E0
1.304550863E1,8.845394482E-1,-2.454501502E0,-5.800016343E0,6.359809528E0
1.305552362E1,1.476516823E0,-2.434589978E0,-4.799182061E0,5.580275867E0
1.306553863E1,2.491048646E0,-1.650590041E0,-3.814705950E0,4.845797388E0
1.307555463E1,3.362913231E0,-1.591471767E-1,-2.867267565E0,4.422186847E0
1.308556962E1,3.863957047E0,1.702819126E0,-1.741120581E0,4.567412606E0
1.309558462E1,3.853605137E0,4.127855923E0,-1.105862700E0,5.754337441E0
1.310559962E1,3.028931968E0,6.609912429E0,-1.548129720E0,7.433846704E0
1.311561462E1,1.500646382E0,8.101090415E0,-2.783604434E0,8.696439450E0
1.312563062E1,-3.875557923E-1,8.150222813E0,-3.833314129E0,9.015022386E0
1.313564562E1,-2.074960342E0,7.449055118E0,-3.315636739E0,8.413520640E0
1.314566062E1,-2.630914045E0,6.027518640E0,-2.124549555E0,6.911324076E0
1.315567562E1,-2.975258036E0,4.326715050E0,-9.807779666E-1,5.341773949E0
1.316569062E1,-3.687488664E0,2.170810971E0,-3.706315383E-1,4.295039075E0
1.317570562E1,-4.097633420E0,1.966365999E-1,-2.030847631E-2,4.102399058E0
1.318572162E1,-3.797193539E0,-1.079136978E0,9.752033774E-1,4.066231304E0
1.319573662E1,-3.215902535E0,-1.818812097E0,1.789901708E0,4.105344649E0
1.320575162E1,-2.343207938E0,-2.244772986E0,1.771537943E0,3.697022570E0
1.321576662E1,-1.359814000E0,-2.374530888E0,1.209077751E0,2.991548104E0
1.322578162E1,-3.518398297E-1,-2.467811519E0,6.465802829E-1,2.575257467E0
1.323579762E1,6.133752608E-1,-2.423813560E0,7.120022938E-2,2.501233867E0
1.324581262E1,1.301039981E0,-2.341956049E0,-4.261708045E-1,2.712763300E0
1.325582762E1,1.716138060E0,-2.539376176E0,-4.858263644E-1,3.103157821E0
1.326584262E1,1.856871039E0,-2.885787451E0,-2.002365844E-1,3.437416756E0
1.327585762E1,1.910848441E0,-3.081550477E0,3.584460139E-1,3.643594194E0
1.328587262E1,1.885161768E0,-3.156437522E0,8.162935976E-1,3.766067970E0
1.329588862E1,1.578557315E0,-3.236332122E0,1.001904030E0,3.737579495E0
1.330590362E1,1.139655952E0,-3.198124661E0,1.080216959E0,3.562819910E0
1.331591862E1,7.410894142E-1,-3.157742620E0,1.122685359E0,3.432342406E0
1.332593362E1,4.076987194E-1,-3.140392762E0,1.243619739E0,3.402186797E0
1.333594862E1,6.362340733E-2,-2.860104141E0,1.633199837E0,3.294174455E0
1.334596363E1,-2.975531101E-1,-2.675539702E0,2.117710797E0,3.425164167E0
1.335597963E1,-4.321460742E-1,-2.662992747E0,2.298830495E0,3.544418463E0
1.336599462E1,-3.168860516E-1,-2.400148124E0,2.395843989E0,3.406052878E0
1.337600963E1,-2.273118241E-1,-1.997626383E0,2.496997603E0,3.205803934E0
1.338602462E1,-2.096595186E-1,-1.716334380E0,2.325780312E0,2.898105394E0
1.339603963E1,-1.348116499E-1,-1.586670619E0,1.712796814E0,2.338668587E0
1.340605563E1,-2.985035750E-1,-1.709476765E0,9.305703378E-1,1.969105469E0
1.341607062E1,-4.356489949E-1,-2.125161173E0,1.092214568E-1,2.172102527E0
1.342608563E1,6.624456793E-3,-2.353227142E0,-1.014281562E0,2.562516137E0
1.343610062E1,1.054795896E0,-1.348357404E0,-2.254314473E0,2.830652895E0
1.344611563E1,2.459348844E0,1.007473503E0,-3.015911973E0,4.019841367E0
1.345613062E1,2.823126934E0,2.825415534E0,-2.360111800E0,4.639304509E0
1.346614662E1,2.176477654E0,2.908989202E0,-1.195817508E0,3.824820606E0
1.347616163E1,1.813684089E0,2.528162971E0,4.208124161E-1,3.139767677E0
1.348617662E1,1.435721092E0,1.893171138E0,3.217007074E0,3.999315758E0
1.349619163E1,-8.042143464E-2,5.777025676E-1,6.183879619E0,6.211326348E0
1.350620662E1,-2.793947573E0,-1.532923597E-1,7.948101525E0,8.426266044E0
1.351622163E1,-5.552862139E0,4.816819310E-1,5.890190349E0,8.109293296E0
1.352623763E1,-6.284156443E0,2.695248327E0,2.712991849E-1,6.843141749E0
1.353625262E1,-3.577618897E0,4.682057362E0,-4.628015056E0,7.492632479E0
1.354626763E1,2.221576935E0,7.405399221E0,-6.537666571E0,1.012503955E1
1.355628262E1,5.565686252E0,1.112502828E1,-4.185040523E0,1.312469740E1
1.356629763E1,3.010496866E0,9.746775227E0,-1.378978103E0,1.029389622E1
1.357631262E1,1.699051034E0,4.628605624E0,5.334788696E-1,4.959371346E0
1.358632862E1,1.215322577E0,1.845461951E0,1.021920218E0,2.434555342E0
1.359634363E1,3.624532570E-1,1.089364343E0,8.887626728E-1,1.451890534E0
1.360635862E1,-7.344807449E-1,2.877110767E-1,-1.137575074E-1,7.969820568E-1
1.361637363E1,-1.859556665E0,-4.045419538E-1,-1.717579837E0,2.563529925E0
1.362638862E1,-1.537277726E0,-3.351635706E-1,-2.759504550E0,3.176542584E0
1.363640462E1,-2.799360341E-1,-2.488604218E-1,-3.710930736E0,3.729785868E0
1.364641963E1,1.203513248E0,-2.663026661E-1,-3.979121468E0,4.165665482E0
1.365643462E1,2.931739549E0,-4.374360502E-2,-3.573103385E0,4.622129172E0
1.366644963E1,4.158838565E0,2.538732398E-1,-3.090337672E0,5.187540531E0
1.367646462E1,4.887730249E0,8.043786532E-1,-2.215925309E0,5.426532685E0
1.368647963E1,5.317305887E0,1.292634609E0,-1.389684501E0,5.645871867E0
1.369649462E1,5.499827308E0,1.492459695E0,-1.018400048E0,5.789013303E0
1.370651062E1,5.536839598E0,1.084528111E0,-6.830995068E-1,5.683257772E0
1.371652563E1,5.056071002E0,1.365231299E-1,-3.650405037E-1,5.071069623E0
1.372654062E1,3.426792308E0,-1.533541648E0,1.459932804E-1,3.757122509E0
1.373655563E1,1.955496317E0,-2.684650834E0,6.128342472E-1,3.377407550E0
1.374657062E1,1.510200879E0,-3.075534276E0,7.856893440E-1,3.515241887E0
1.375658512E1,1.050488837E0,-3.267129992E0,1.044779323E0,3.587370766E0
1.376660112E1,3.782715833E-1,-3.304585501E0,8.991848230E-1,3.445563534E0
1.377661613E1,7.344672963E-2,-2.913618443E0,3.776858385E-1,2.938913651E0
1.378663112E1,1.726770490E-2,-2.293888428E0,8.775969028E-2,2.295631516E0
1.379664613E1,-1.798486590E-2,-1.756699464E0,-1.089804053E-2,1.756825327E0
1.380666112E1,-1.562516356E-1,-1.290457106E0,9.937693834E-2,1.303675531E0
1.381667712E1,-4.197719041E-1,-9.597315717E-1,1.721934843E-1,1.061576063E0
1.382669213E1,-3.800370039E-1,-6.867543089E-1,7.113222626E-1,1.059263407E0
1.383670712E1,-1.331425622E-1,-3.895847762E-1,1.197330841E0,1.266137584E0
1.384672213E1,7.539487571E-2,-2.085117102E-1,1.443498620E0,1.460427946E0
1.385673712E1,4.197131395E-3,-1.052966595E-1,1.530084189E0,1.533708782E0
1.386675213E1,-3.977679545E-1,-2.226222110E-1,1.737539892E0,1.796336514E0
1.387676712E1,-8.599021319E-1,-4.905580044E-1,1.982507530E0,2.215945608E0
1.388678312E1,-1.134477658E0,-5.706613505E-1,2.208448913E0,2.547536170E0
1.389679813E1,-1.145391486E0,-4.263199085E-1,2.312657990E0,2.615732651E0
1.390681312E1,-9.365440726E-1,-2.315778065E-1,2.361530481E0,2.550993785E0
1.391682813E1,-6.737097555E-1,-1.007983965E-1,2.440842991E0,2.534119109E0
1.392684312E1,-6.141976717E-1,-1.716695738E-1,2.469499025E0,2.550516547E0
1.393685813E1,-6.246232572E-1,-2.356983393E-1,2.283604345E0,2.379192453E0
1.394687413E1,-5.859844907E-1,-2.564775896E-1,1.901354901E0,2.006068054E0
1.395688912E1,-5.404889868E-1,-2.969531858E-1,1.494743033E0,1.616962051E0
1.396690413E1,-4.933189865E-1,-3.698849219E-1,1.306448363E0,1.444640372E0
1.397691912E1,-2.805767427E-1,-6.548425448E-1,1.388872469E0,1.560932030E0
1.398693413E1,-2.746878657E-1,-9.752109057E-1,1.878447264E0,2.134257215E0
1.399694912E1,-1.004977034E0,-9.727848959E-1,2.517641491E0,2.880070827E0
1.400696512E1,-1.726830424E0,-5.454925954E-1,3.077021223E0,3.570373243E0
1.401698013E1,-2.194809406E0,-5.232965648E-2,3.421963970E0,4.065681263E0
1.402699512E1,-2.394075498E0,4.813346064E-1,3.518798246E0,4.283132218E0
1.403701013E1,-2.158770677E0,7.866118884E-1,2.980142215E0,3.763016971E0
1.404702512E1,-1.570994233E0,8.979265022E-1,1.946974585E0,2.658007698E0
1.405704013E1,-3.933867820E-1,8.086196387E-1,8.684825554E-1,1.250152322E0
1.406705613E1,1.073081894E0,4.695407724E-1,-1.920950675E-1,1.186959899E0
1.407707112E1,1.254387971E0,-4.257211536E-1,-1.027700776E0,1.676572864E0
1.408708613E1,-2.730885791E-1,-1.518997284E0,-2.343688872E0,2.806208767E0
1.409710112E1,-1.596652839E0,-2.260603153E0,-4.010769815E0,4.872976648E0
1.410711613E1,-1.943245377E0,-2.339795503E0,-5.256089047E0,6.072669731E0
1.411713112E1,-1.871595643E0,-1.839649234E0,-5.930615659E0,6.485320474E0
1.412714712E1,-1.316565801E0,-8.958922559E-1,-6.132714143E0,6.336099052E0
1.413716213E1,1.235912085E-1,6.427727222E-2,-5.898640745E0,5.900285501E0
1.414717712E1,2.538047981E0,1.083039994E0,-5.164989427E0,5.855918286E0
1.415719212E1,4.268049935E0,2.130448226E0,-4.092699831E0,6.285320342E0
1.416720712E1,5.845978382E0,3.924046544E0,-3.283558913E0,7.768871453E0
1.417722212E1,6.225341640E0,6.090160446E0,-2.226418430E0,8.988986140E0
1.418723712E1,4.730741571E0,7.937572444E0,-1.058397635E0,9.300815968E0
1.419725312E1,2.734901220E0,8.516761959E0,-5.017343724E-1,8.959166051E0
1.420726812E1,4.828982981E-1,7.215450667E0,-1.042922101E0,7.306408529E0
1.421728312E1,-1.413593328E0,5.282310301E0,-1.931986710E0,5.799450048E0
1.422729812E1,-2.287549169E0,3.505442036E0,-2.285915165E0,4.769319995E0
1.423731312E1,-2.946204976E0,2.496876274E0,-1.908538206E0,4.307787479E0
1.424732812E1,-3.616685607E0,1.812123467E0,-1.397759360E0,4.279945965E0
1.425734412E1,-4.231724693E0,8.433655483E-1,-1.217869771E0,4.483521618E0
1.426735912E1,-4.549955896E0,-5.049982882E-1,-1.159025731E0,4.722336559E0
1.427737412E1,-4.202029316E0,-1.884336580E0,-3.482835166E-1,4.618341274E0
1.428738912E1,-3.273066962E0,-2.712813363E0,4.645940280E-1,4.276467151E0
1.429740412E1,-2.094067142E0,-3.597869559E0,8.041547048E-1,4.239864072E0
1.430741912E1,-9.392749415E-1,-4.255526953E0,6.773894083E-1,4.410283832E0
1.431743412E1,5.197838500E-2,-4.269341585E0,4.050285152E-1,4.288825879E0
1.432745012E1,6.381421660E-1,-3.884076732E0,-2.934830826E-2,3.936259494E0
1.433746512E1,8.523429246E-1,-3.745957897E0,-2.812521692E-1,3.851985437E0
1.434748012E1,1.068757293E0,-3.811412798E0,-1.558047986E-1,3.961487701E0
1.435749512E1,1.291962179E0,-3.688400245E0,2.822298968E-1,3.918305291E0
1.436751012E1,1.259199060E0,-3.512773860E0,7.138491368E-1,3.799308234E0
1.437752513E1,9.321810995E-1,-3.329515690E0,9.684299628E-1,3.590611776E0
1.438754113E1,5.775531712E-1,-3.254198874E0,9.764136779E-1,3.446267785E0
1.439755612E1,5.989639208E-2,-3.243328900E0,8.221465874E-1,3.346445121E0
1.440757113E1,-5.279604502E-1,-3.218039693E0,6.223776340E-1,3.319921026E0
1.441758612E1,-1.145014341E0,-3.162561311E0,5.587096417E-1,3.409546648E0
1.442760113E1,-1.466360210E0,-2.942664487E0,7.967848742E-1,3.382950293E0
1.443761612E1,-1.598997865E0,-2.603508437E0,1.369875158E0,3.348373979E0
1.444763212E1,-1.605743067E0,-2.230558405E0,1.862395634E0,3.319987815E0
1.445764713E1,-1.830184785E0,-1.812109433E0,2.197187176E0,3.385402255E0
1.446766212E1,-2.055321445E0,-1.086781043E0,2.461935067E0,3.386231468E0
1.447767713E1,-2.134571097E0,-3.541506493E-1,2.556176981E0,3.349008392E0
1.448769212E1,-2.186619503E0,4.333079159E-2,2.278776884E0,3.158481676E0
1.449770713E1,-2.185351096E0,1.918372053E-1,1.522809230E0,2.670488509E0
1.450772212E1,-2.129296324E0,2.124147266E-1,4.241804854E-1,2.181502220E0
1.451773812E1,-1.766430400E0,6.972956693E-1,-6.914297426E-1,2.021032582E0
1.452775313E1,-9.325680390E-1,1.709950390E0,-1.523524783E0,2.472800284E0
1.453776812E1,2.365833885E-1,3.056802136E0,-1.659051547E0,3.486038301E0
1.454778313E1,9.783122689E-1,3.490895333E0,-8.858718824E-1,3.732052266E0
1.455779812E1,1.302712577E0,2.701912984E0,2.934144509E-1,3.013882192E0
1.456781313E1,9.129789895E-1,1.878370081E0,1.132246653E0,2.375665650E0
1.457782812E1,-1.514097755E-1,1.011688176E0,2.088492115E0,2.325561695E0
1.458784412E1,-1.649788096E0,3.781546390E-1,2.958632648E0,3.408564043E0
1.459785913E1,-3.238438874E0,1.024704078E0,2.410423436E0,4.165050531E0
1.460787412E1,-3.238448814E0,2.568494141E0,7.422338605E-2,4.134032170E0
1.461788913E1,9.597985223E-1,7.360630015E0,-3.065691658E0,8.031099100E0
1.462790412E1,4.457066444E0,1.088762430E1,-2.385948746E0,1.200410578E1
1.463791913E1,3.482318345E0,7.448810704E0,7.489464641E-2,8.222951488E0
1.464793513E1,2.924902984E0,1.835099516E0,-1.178099349E0,3.648364809E0
1.465795012E1,2.584561120E0,6.614955068E-3,-1.377885844E0,2.928919483E0
1.466796513E1,7.424363203E-1,2.762324077E-1,-2.234080585E-1,8.230596536E-1
1.467798012E1,-6.070957898E-1,3.966581529E-1,-4.944604361E-1,8.777209757E-1
1.468799513E1,-1.926716176E0,-2.485446721E-1,-1.233968325E0,2.301453346E0
1.469801012E1,-3.089100986E0,-7.557689953E-1,-2.262806969E0,3.903079176E0
1.470802513E1,-2.832181932E0,-4.521406281E-1,-2.901049268E0,4.079432865E0
1.471804113E1,-1.680051968E0,2.377360940E-2,-2.845982530E0,3.304959359E0
1.472805612E1,-8.409968412E-1,5.349044573E-1,-3.079153118E0,3.236445950E0
1.473807113E1,-6.208675906E-2,9.362503231E-1,-3.303515460E0,3.434186051E0
1.474808612E1,1.084142048E0,1.434582785E0,-2.796401650E0,3.324643430E0
1.475810050E1,2.104811986E0,1.976277030E0,-1.991362846E0,3.507339501E0
1.476811550E1,2.884837278E0,2.175449567E0,-1.338613604E0,3.853148495E0
1.477813050E1,3.294129218E0,1.969632838E0,-1.184631858E0,4.016726709E0
1.478814650E1,3.675196939E0,1.376564957E0,-8.248220540E-1,4.010278674E0
1.479816150E1,3.732634431E0,5.082212734E-1,-2.858107316E-1,3.777901062E0
1.480817650E1,3.008680429E0,-9.934817004E-1,6.605248690E-2,3.169152370E0
1.481819150E1,2.029555689E0,-2.536573606E0,5.347500908E-1,3.292303086E0
1.482820650E1,1.439252810E0,-3.337783653E0,5.635349102E-1,3.678290358E0
1.483822150E1,1.335719379E0,-3.501115682E0,5.811245044E-1,3.792052606E0
1.484823650E1,1.153662080E0,-3.317528898E0,7.672190130E-1,3.595213373E0
1.485825250E1,9.259198279E-1,-2.969469293E0,6.454123016E-1,3.176732983E0
1.486826750E1,7.320937653E-1,-2.482544163E0,2.750727586E-1,2.602816134E0
1.487828250E1,4.828446499E-1,-2.001223590E0,-1.036185086E-1,2.061254863E0
1.488829750E1,3.393297118E-1,-1.262174124E0,-2.459654653E-1,1.329935029E0
1.489831250E1,2.531100319E-1,-5.458691561E-1,-4.266948612E-1,7.376356339E-1
1.490832750E1,2.059318455E-1,-6.598524392E-2,-1.863012077E-1,2.854297066E-1
1.491834250E1,2.780082071E-1,3.158081174E-3,2.963415670E-1,4.063457408E-1
1.492835850E1,4.776568539E-1,-6.130688667E-2,1.042579747E0,1.148428114E0
1.493837350E1,4.377148162E-1,-3.181522661E-1,1.689577229E0,1.774115649E0
1.494838850E1,1.421439853E-1,-7.359481037E-1,1.859245885E0,2.004649542E0
1.495840350E1,-3.488399157E-1,-1.122960690E0,1.797575594E0,2.148024212E0
1.496841850E1,-7.617231419E-1,-1.303133284E0,1.686140674E0,2.263061836E0
1.497843350E1,-9.496635434E-1,-1.284362553E0,1.645657915E0,2.293390064E0
1.498844850E1,-8.812698314E-1,-1.073821274E0,1.793387818E0,2.268472727E0
1.499846450E1,-6.696085185E-1,-8.259770983E-1,2.083537184E0,2.339175268E0
1.500847950E1,-4.614502725E-1,-6.624024099E-1,2.343702028E0,2.478840959E0
1.501849450E1,-3.821009248E-1,-5.203027904E-1,2.497428836E0,2.579509042E0
1.502850950E1,-3.669165829E-1,-3.954489487E-1,2.470666130E0,2.528873024E0
1.503852450E1,-5.347530144E-1,-5.677079219E-1,2.232967458E0,2.365247712E0
1.504853950E1,-6.689773116E-1,-9.272000027E-1,2.043833420E0,2.341897850E0
1.505855450E1,-7.700093043E-1,-1.396512734E0,2.060149491E0,2.605259693E0
1.506857050E1,-1.261025438E0,-1.902610883E0,2.221101118E0,3.184871034E0
1.507858550E1,-2.083710262E0,-1.805502664E0,2.358208093E0,3.628061980E0
1.508860050E1,-3.055854595E0,-1.221348279E0,2.757237584E0,4.293285225E0
1.509861550E1,-3.485887778E0,-4.578960425E-1,3.017941249E0,4.633470812E0
1.510863050E1,-3.294382694E0,2.787893951E-1,2.874901397E0,4.381294204E0
1.511864550E1,-2.758317565E0,8.437391853E-1,2.389801476E0,3.745846059E0
1.512866150E1,-1.929135607E0,1.058844801E0,1.342160818E0,2.577617536E0
1.513867650E1,-3.226423430E-1,1.169349575E0,3.714619160E-2,1.213612932E0
1.514869150E1,-2.580621120E-1,9.045250851E-1,-5.822151563E-1,1.106226094E0
1.515870650E1,-1.618540137E0,3.219740063E-1,-1.799824141E0,2.441865347E0
1.516872150E1,-2.232140661E0,1.596909678E-1,-3.191176414E0,3.897635186E0
1.517873650E1,-1.306370742E0,5.841257340E-1,-4.159621799E0,4.398893145E0
1.518875150E1,2.540534802E-1,1.350402761E0,-4.543014374E0,4.746273316E0
1.519876750E1,1.710588321E0,1.898113205E0,-5.033335859E0,5.644768907E0
1.520878250E1,2.339620233E0,1.515903522E0,-5.632398305E0,6.284560206E0
1.521879750E1,3.478095194E0,7.309762162E-1,-5.610066619E0,6.641108332E0
1.522881250E1,5.286527898E0,7.755097800E-1,-4.820275892E0,7.196099798E0
1.523882750E1,6.405124810E0,1.791266448E0,-3.477193845E0,7.505007419E0
1.524884250E1,5.956917604E0,2.878900015E0,-2.186793019E0,6.968141528E0
1.525885750E1,4.595825549E0,3.879286108E0,-1.104396511E0,6.114749777E0
1.526887350E1,2.823009697E0,4.741215397E0,-1.368914314E-1,5.519714345E0
1.527888850E1,6.102119172E-1,5.075383771E0,1.466035835E-2,5.111955979E0
1.528890350E1,-1.598590460E0,5.036619655E0,-7.871708822E-1,5.342533763E0
1.529891850E1,-2.979611873E0,4.402425383E0,-1.805057691E0,5.614059978E0
1.530893350E1,-3.708949992E0,3.446656469E0,-2.301630142E0,5.561767000E0
1.531894850E1,-4.056237472E0,2.430218600E0,-1.987886091E0,5.129397234E0
1.532896350E1,-4.003499387E0,1.501679585E0,-1.250684345E0,4.455026403E0
1.533897950E1,-4.060029391E0,3.804677975E-1,-1.238974711E0,4.261883707E0
1.534899450E1,-3.793160715E0,-1.007600387E0,-6.207578822E-1,3.973495576E0
1.535900950E1,-3.132221278E0,-2.071725224E0,3.989626137E-1,3.776509857E0
1.536902450E1,-1.970063778E0,-2.807661048E0,9.910632920E-1,3.570198636E0
1.537903950E1,-6.913453965E-1,-3.361378337E0,8.766834947E-1,3.541948155E0
1.538905450E1,2.063236821E-1,-3.637257573E0,6.229109001E-1,3.695974852E0
1.539907050E1,8.956438954E-1,-3.568642251E0,1.445245329E-1,3.682156005E0
1.540908550E1,1.337310260E0,-3.234199058E0,-3.065975833E-1,3.513181515E0
1.541910050E1,1.569466064E0,-2.918558171E0,-5.159045879E-1,3.353708852E0
1.542911550E1,1.657833426E0,-2.602656498E0,-2.456695231E-1,3.095575234E0
1.543913050E1,1.708785478E0,-2.487528915E0,1.993246380E-1,3.024479827E0
1.544914550E1,1.656491928E0,-2.423480269E0,5.161128218E-1,2.980535953E0
1.545916050E1,1.433027718E0,-2.386310104E0,6.617774156E-1,2.861117561E0
1.546917650E1,1.027387511E0,-2.467521497E0,5.985222367E-1,2.739053907E0
1.547919150E1,4.570392792E-1,-2.588343683E0,5.212325708E-1,2.679569241E0
1.548920650E1,-3.501827288E-1,-2.624862469E0,6.186015022E-1,2.719411470E0
1.549922150E1,-1.071118252E0,-2.500600365E0,9.101776616E-1,2.868574537E0
1.550923650E1,-1.570889422E0,-2.393905052E0,1.412441719E0,3.192720875E0
1.551925150E1,-1.823737499E0,-2.374450196E0,1.970156164E0,3.584068569E0
1.552926650E1,-1.884939136E0,-2.262705227E0,2.430521486E0,3.818411343E0
1.553928250E1,-1.962668220E0,-1.990158319E0,2.837626859E0,3.983079571E0
1.554929750E1,-1.923969154E0,-1.574675640E0,3.087752033E0,3.964274624E0
1.555931250E1,-1.888944625E0,-1.159775929E0,3.037002879E0,3.759864158E0
1.556932750E1,-1.941926246E0,-9.504625654E-1,2.527840204E0,3.326324207E0
1.557934250E1,-1.889329810E0,-1.051136416E0,1.612491338E0,2.697143528E0
1.558935750E1,-1.569843209E0,-1.192762411E0,5.372866130E-1,2.043469299E0
1.559937250E1,-8.722462620E-1,-9.133391780E-1,-6.210668345E-1,1.407382680E0
1.560938850E1,-1.630152561E-1,-1.896567786E-1,-1.210795663E0,1.236353430E0
1.561940350E1,5.940933363E-1,9.608630079E-1,-1.180386706E0,1.633865780E0
1.562941850E1,1.252362349E0,2.075725889E0,-8.270186336E-1,2.561446708E0
1.563943350E1,1.399050133E0,2.125793842E0,-7.974725068E-1,2.666890161E0
1.564944850E1,1.501571411E0,1.842706743E0,-6.279254723E-1,2.458571790E0
1.565946350E1,1.372924920E0,1.281021454E0,1.406353598E0,2.346011347E0
1.566947850E1,3.978486460E-1,-1.997993588E-2,4.266836053E0,4.285390606E0
1.567949450E1,-1.781669560E0,-6.818958575E-1,3.297398103E0,3.809483250E0
1.568950950E1,-2.896936044E0,4.462975055E-1,-2.592779381E0,3.913301014E0
1.569952450E1,-3.508579360E-1,4.865261738E0,-6.506124351E0,8.131637421E0
1.570953950E1,4.029290578E0,1.092060143E1,-4.521568834E0,1.248756593E1
1.571955450E1,5.467469986E0,1.233662983E1,-2.294714055E0,1.368763589E1
1.572956950E1,4.123167626E0,7.442330235E0,-1.189700224E0,8.590935759E0
1.573958450E1,3.258269121E0,2.593508529E0,2.402118417E-1,4.171367388E0
1.574960050E1,2.001836963E0,1.224410466E0,1.574327000E-1,2.351875267E0
1.575961663E1,1.627442376E-1,5.021425080E-1,7.416264810E-2,5.330411650E-1
1.576963162E1,-1.193472263E0,-5.856354851E-1,-2.835817730E-1,1.359324680E0
1.577964663E1,-2.091382832E0,-1.279069653E0,-1.180435823E0,2.720906110E0
1.578966162E1,-2.418511451E0,-1.048869451E0,-1.948982227E0,3.278392363E0
1.579967662E1,-2.065230137E0,-3.595908988E-1,-2.670804627E0,3.395243509E0
1.580969162E1,-1.525864546E0,2.185689211E-1,-2.883857285E0,3.269964499E0
1.581970762E1,-7.031428850E-1,9.091590035E-1,-2.307707884E0,2.578079845E0
1.582972262E1,6.727917427E-1,1.560099117E0,-1.328808847E0,2.156916998E0
1.583973762E1,2.004440436E0,1.911358902E0,-5.551602356E-1,2.824761442E0
1.584975262E1,3.277340984E0,2.003654863E0,-1.332030809E-1,3.843610256E0
1.585976762E1,4.299659106E0,1.757540878E0,-3.859162331E-4,4.644999302E0
1.586978262E1,4.923294768E0,1.290628429E0,4.249610156E-3,5.089653345E0
1.587979762E1,4.833719810E0,6.308736384E-1,-7.814920664E-2,4.875341634E0
1.588981362E1,3.841784406E0,-6.079502141E-1,-2.344251081E-2,3.889660709E0
1.589982862E1,2.782566260E0,-2.014611375E0,3.490086079E-1,3.452990153E0
1.590984362E1,2.048475525E0,-2.815969357E0,8.953712690E-1,3.595500675E0
1.591985862E1,1.387602600E0,-3.209745417E0,1.244454575E0,3.711680726E0
1.592987362E1,8.899761893E-1,-3.331797273E0,1.101437381E0,3.620234107E0
1.593988862E1,5.345678039E-1,-3.347257896E0,7.462709244E-1,3.470852698E0
1.594990462E1,1.110354093E-1,-3.262859185E0,6.185129169E-1,3.322820662E0
1.595991962E1,-1.754530147E-1,-2.975959702E0,5.152098656E-1,3.025320002E0
1.596993462E1,-3.027357897E-1,-2.376253477E0,3.256969285E-1,2.417500369E0
1.597994962E1,-3.159977134E-1,-1.538128788E0,2.573801073E-1,1.591206852E0
1.598996462E1,9.957793638E-2,-7.999330151E-1,3.217041573E-1,8.679298122E-1
1.599997962E1,7.347929862E-1,-2.195769811E-1,6.532556105E-1,1.007411374E0
1.600999462E1,1.166258298E0,6.923044860E-2,9.865431020E-1,1.529123463E0
1.602000963E1,1.364757821E0,-3.866939127E-2,1.236316859E0,1.841884526E0
1.603002562E1,1.227871579E0,-3.886351883E-1,1.543733052E0,2.010427233E0
1.604004062E1,9.279884997E-1,-6.433311313E-1,1.785806319E0,2.112851582E0
1.605005563E1,5.995394330E-1,-6.462962544E-1,1.874660315E0,2.071593029E0
1.606007062E1,4.616876695E-1,-4.263041210E-1,1.931225402E0,2.030891987E0
1.607008563E1,4.860458542E-1,-2.122504199E-1,2.050179111E0,2.117669757E0
1.608010062E1,4.697898638E-1,-1.675578117E-2,2.296617908E0,2.344234862E0
1.609011563E1,3.523320191E-1,1.264682579E-1,2.495804187E0,2.523721579E0
1.610013163E1,2.619328956E-1,1.337959886E-1,2.532384368E0,2.549407930E0
1.611014662E1,2.190790907E-1,1.386018151E-1,2.527875288E0,2.541133523E0
1.612016163E1,-6.259941369E-2,-2.651302993E-2,2.303986570E0,2.304989315E0
1.613017662E1,-3.018869202E-1,-3.951945949E-1,2.210495731E0,2.265746203E0
1.614019163E1,-1.852386224E-1,-8.153299034E-1,2.384980447E0,2.527292609E0
1.615020662E1,-3.336333543E-1,-1.197858260E0,2.653510902E0,2.930408799E0
1.616022163E1,-1.401687520E0,-1.233396467E0,2.781719291E0,3.350217450E0
1.617023763E1,-2.591461711E0,-9.756254733E-1,2.763432709E0,3.912042843E0
1.618025262E1,-2.832796474E0,-2.456625795E-1,2.771016548E0,3.970342388E0
1.619026763E1,-2.081108397E0,6.632911867E-1,2.405665849E0,3.249337707E0
1.620028262E1,-1.160987764E0,1.100469375E0,1.533341088E0,2.215865593E0
1.621029763E1,3.999744013E-2,1.266842541E0,3.615453306E-1,1.318030669E0
1.622031262E1,2.882254855E-1,1.471980407E0,-4.149134526E-1,1.556262646E0
1.623032763E1,-5.474973133E-1,1.656149574E0,-1.119956975E0,2.072893713E0
1.624034363E1,-8.954885057E-1,1.894068686E0,-2.301777492E0,3.112487023E0
1.625035862E1,-5.098682879E-1,2.052790185E0,-3.273147654E0,3.897102613E0
1.626037363E1,2.417581013E-1,2.059698671E0,-3.365453846E0,3.953110824E0
1.627038862E1,1.070963447E0,1.876967919E0,-3.421154423E0,4.046513173E0
1.628040363E1,1.400547459E0,1.170155906E0,-3.957234463E0,4.357809383E0
1.629041862E1,1.735713514E0,1.621620011E-1,-4.259472070E0,4.602401572E0
1.630043363E1,2.883252098E0,-3.610386693E-1,-3.849711184E0,4.823252821E0
1.631044862E1,3.982395324E0,-3.040943903E-1,-3.005843652E0,4.998704030E0
1.632046462E1,4.397609031E0,2.156909215E-1,-2.288576818E0,4.962164005E0
1.633047963E1,4.026465204E0,8.257595819E-1,-1.914848521E0,4.534417910E0
1.634049462E1,3.224631844E0,1.686956799E0,-1.670815999E0,4.004459997E0
1.635050963E1,2.196917034E0,3.016098499E0,-1.251825575E0,3.935779704E0
1.636052462E1,7.871252739E-1,4.107205896E0,-7.820697713E-1,4.254449388E0
1.637053963E1,-6.175207905E-1,5.097652892E0,-7.415276630E-1,5.188184674E0
1.638055462E1,-1.615576183E0,4.942909838E0,-1.160209061E0,5.328088694E0
1.639057062E1,-2.322713593E0,3.753121905E0,-1.624699155E0,4.703250984E0
1.640058563E1,-2.996669371E0,2.751870425E0,-1.512742517E0,4.340646043E0
1.641060062E1,-3.354832672E0,1.807602984E0,-1.145906772E0,3.979375973E0
1.642061563E1,-3.649267754E0,6.200808477E-1,-1.516995782E0,4.000366433E0
1.643063062E1,-3.380727358E0,-7.519647968E-1,-1.195791781E0,3.663971412E0
1.644064562E1,-2.711585448E0,-2.233115977E0,-2.982582112E-1,3.525402185E0
1.645066062E1,-1.775636403E0,-3.076445857E0,4.023281249E-1,3.574810718E0
1.646067562E1,-6.895564409E-1,-3.600876782E0,4.777069207E-1,3.697297065E0
1.647069162E1,3.045244530E-1,-3.970220836E0,2.387464929E-1,3.989033532E0
1.648070662E1,9.823753528E-1,-4.009180834E0,-5.643491350E-2,4.128168746E0
