"Time (s)","Linear Acceleration x (m/s^2)","Linear Acceleration y (m/s^2)","Linear Acceleration z (m/s^2)","Absolute acceleration (m/s^2)"
-2.278125001E-3,1.083607467E-1,-2.488107204E-2,4.126918030E-1,4.274057129E-1
7.736875006E-3,8.252337711E-1,8.027934730E-2,-6.803048301E-1,1.072506509E0
1.775187500E-2,6.125353083E-1,-9.644514441E-2,-1.605102797E0,1.720713851E0
2.776687501E-2,5.152639523E-2,-1.412810093E-1,-1.760003141E0,1.766416244E0
3.778087501E-2,-1.210572445E-1,-1.334872556E-1,-1.564503239E0,1.574847323E0
4.779587501E-2,8.902429685E-2,-2.540077257E-1,-1.411200939E0,1.436639600E0
5.781087501E-2,3.145622219E-1,-3.316260052E-1,-1.252660704E0,1.333448176E0
6.782587501E-2,3.035046986E-1,-4.210258394E-1,-9.748805380E-1,1.104431946E0
7.783987501E-2,4.480253577E-1,-3.355424702E-1,-5.458346575E-1,7.818253922E-1
8.785487500E-2,7.676769961E-1,-1.548354399E-1,1.690406656E-1,8.011720979E-1
9.786987501E-2,1.248594550E0,-4.102581918E-2,9.989967942E-1,1.599583090E0
1.078848750E-1,1.524856632E0,-1.419955391E-1,1.740909643E0,2.318645481E0
1.178998750E-1,1.660438214E0,-5.381894231E-2,2.236734234E0,2.786203793E0
1.279138750E-1,1.883335537E0,2.340891856E-1,1.849556172E0,2.650020476E0
1.379288750E-1,1.730119337E0,-5.747310126E-1,1.614240240E0,2.435035977E0
1.479438750E-1,6.984006469E-1,-1.502229808E0,1.947814538E0,2.557037218E0
1.579588750E-1,1.961753861E0,-5.396225756E-1,2.982039052E-1,2.056355102E0
1.679738750E-1,2.853313477E0,1.346648848E0,-1.634448802E-1,3.159363092E0
1.779878750E-1,2.745134432E0,1.992834590E0,1.529569049E0,3.721120024E0
1.880028750E-1,2.430413312E0,1.648833538E0,1.985491072E0,3.545100238E0
1.980178750E-1,1.627616916E0,1.040645927E0,7.865908384E-1,2.085858556E0
2.080328750E-1,7.069743461E-1,-2.275818193E-1,1.908057564E-1,7.668200879E-1
2.180478750E-1,3.032618929E-1,-2.961456853E-1,1.015965414E-1,4.358806028E-1
2.280618750E-1,1.235384082E0,-1.999408615E-1,7.204295933E-2,1.253531159E0
2.380768750E-1,1.972952157E0,-2.082351369E-1,6.784231961E-1,2.096702200E0
2.480918750E-1,1.900556464E0,-2.874894673E-1,2.526470786E0,3.174558190E0
2.581068750E-1,2.627931088E0,-1.188365305E0,5.036058322E0,5.803457360E0
2.681208750E-1,4.592641155E0,-1.084621666E0,2.579889779E0,5.378158440E0
2.781358750E-1,7.704570841E0,5.643907964E-1,-2.959100425E-2,7.725271803E0
2.881508750E-1,1.039444675E1,3.775763494E-1,-1.079924598E0,1.045721398E1
2.981658750E-1,1.084855321E1,6.515102166E-1,-3.310809277E0,1.136120726E1
3.081808750E-1,8.538979039E0,-9.156766024E-1,-2.452091280E0,8.931146529E0
3.181948750E-1,5.098345202E0,-1.706720388E0,-2.704226142E0,6.018210474E0
3.282098750E-1,2.203969069E0,-1.686735774E0,-2.894121487E0,4.009800046E0
3.382248750E-1,4.695232308E-1,-2.018369381E0,-1.173789951E0,2.381606573E0
3.482398750E-1,-6.955154845E-1,3.061572880E-2,9.604548723E-1,1.186234662E0
3.582548750E-1,2.240201633E0,1.698844773E0,-2.739124664E0,3.925223668E0
3.682688750E-1,3.556344388E0,9.019888553E-1,-4.199188446E0,5.576231066E0
3.782838750E-1,-1.298076905E0,-3.080313790E0,1.015344440E0,3.493459751E0
3.882988750E-1,-8.949598589E0,-8.097743468E0,1.131765778E1,1.654563815E1
3.983138750E-1,-6.640507400E0,-1.923488367E0,9.577359170E0,1.181194119E1
4.083288750E-1,-2.307622368E0,5.634543648E-1,3.856725796E0,4.529562416E0
4.183428750E-1,-7.725879264E-1,-1.123823154E-1,-2.447365560E0,2.568875254E0
4.283578750E-1,-1.699759862E0,-9.321868005E-1,-4.712501475E0,5.095667372E0
4.383728750E-1,-3.015427823E0,-6.277754912E-1,-4.205340886E0,5.212657575E0
4.483878750E-1,-2.808612390E0,1.488928854E0,-4.071008123E0,5.165105984E0
4.584018750E-1,-1.749623163E0,2.709289246E0,-5.065112552E0,6.004731018E0
4.684168750E-1,-9.245085293E-1,-3.307530159E-1,-7.415656992E0,7.480379816E0
4.784318750E-1,-9.639757732E-1,-3.065127110E0,-8.593675064E0,9.174720954E0
4.884468750E-1,-1.897053105E0,-3.391800231E0,-8.346016245E0,9.206470901E0
4.984618750E-1,-2.462564228E0,-4.446633257E0,-6.644312183E0,8.365623365E0
5.084758750E-1,-1.275052616E0,-5.397638444E0,-1.180231243E-1,5.547448909E0
5.184908750E-1,-4.396313873E-1,-8.154470816E0,2.721276623E0,8.607788130E0
5.285055000E-1,1.057162557E0,-8.195152819E0,9.438962007E0,1.254480475E1
5.385205000E-1,2.173903563E0,-3.769805473E0,8.897708058E0,9.904872473E0
5.485355000E-1,-6.059469581E-3,1.181786603E-1,-1.699007910E0,1.703123834E0
5.585495000E-1,3.854467016E-1,6.711442897E-1,-5.313352000E0,5.369423925E0
5.685645000E-1,4.047260242E0,1.736191817E0,2.329133690E0,4.981921440E0
5.785795000E-1,3.775941541E0,3.487337595E0,9.139103925E0,1.048534590E1
5.885945000E-1,1.688015145E-1,5.107268053E0,2.246358166E0,5.582007339E0
5.986085000E-1,-1.266982874E0,6.646328303E0,-5.355132694E0,8.628810561E0
6.086235000E-1,-2.461316139E0,7.274354932E0,-5.554569526E0,9.477740207E0
6.186385000E-1,-1.207503534E0,7.158709871E0,-4.145974106E0,8.360280682E0
6.286535000E-1,1.596926635E0,6.751625547E0,-4.704197844E0,8.382368374E0
6.386685000E-1,4.011786938E0,6.175125167E0,-5.951583189E0,9.468260016E0
6.486825000E-1,4.407014278E0,6.104535241E0,-5.985661932E0,9.618486061E0
6.586975000E-1,4.236483157E0,4.268748093E0,-5.817595997E0,8.367462160E0
6.687125000E-1,5.144845185E0,1.827796636E0,-5.541675830E0,7.779488642E0
6.787275000E-1,6.083588760E0,4.243520281E-1,-5.664953848E0,8.323570685E0
6.887425000E-1,5.594711246E0,7.165762782E-2,-6.120745477E0,8.292735009E0
6.987565000E-1,4.702695694E0,4.101506031E-1,-4.895743273E0,6.800872922E0
7.087715000E-1,5.056791964E0,7.417608207E-1,-3.741619263E0,6.334119417E0
7.187865000E-1,6.168883849E0,2.628586560E-2,-3.937496894E0,7.318449336E0
7.288015000E-1,7.046237508E0,-1.710628082E0,-3.696198676E0,8.138648297E0
7.388155000E-1,8.360950034E0,-3.225377948E0,-1.666853487E0,9.115204272E0
7.488305000E-1,1.012277692E1,-3.898967251E0,8.111579150E-2,1.084800157E1
7.588455000E-1,1.211290250E1,-3.524198150E0,1.762579424E0,1.273770253E1
7.688605000E-1,1.298559709E1,-3.417754267E0,5.095618646E0,1.436217621E1
7.788755000E-1,1.107217529E1,-2.375909076E0,9.064099935E0,1.450503076E1
7.888895000E-1,8.298655552E0,3.266734135E-1,1.193929165E1,1.454376445E1
7.989045000E-1,3.321092191E0,4.619275807E0,1.268584192E1,1.390316322E1
8.089195000E-1,-2.862760531E0,8.500835313E0,1.270430743E1,1.555181745E1
8.189345000E-1,-7.869290999E0,9.437485585E0,1.322673159E1,1.805376148E1
8.289495000E-1,-8.999054924E0,6.382137651E0,1.377003031E1,1.764450071E1
8.389635000E-1,-8.063536672E0,3.585847099E0,1.322468974E1,1.589878429E1
8.489785000E-1,-7.795624852E0,2.994563203E0,1.202569010E1,1.464091521E1
8.589935000E-1,-7.391742464E0,4.043410435E0,9.699940783E0,1.284818570E1
8.690085000E-1,-8.821649816E0,4.451875286E0,9.761401452E0,1.388976808E1
8.790225000E-1,-1.160428127E1,5.131631647E0,8.941180937E0,1.552216814E1
8.890375000E-1,-1.343905919E1,6.252794902E0,7.033533263E0,1.640659460E1
8.990525000E-1,-1.424426172E1,6.687224314E0,6.101147364E0,1.687726163E1
9.090675000E-1,-1.436070083E1,6.097060745E0,5.944671196E0,1.669559803E1
9.190825000E-1,-1.306101682E1,4.614867591E0,3.421059698E0,1.426852525E1
9.290965000E-1,-1.103078870E1,2.919583188E0,1.877551179E0,1.156405914E1
9.391115000E-1,-9.270344680E0,1.807355062E0,1.383452685E0,9.545667297E0
9.491265000E-1,-1.327798477E1,-4.407794881E-1,4.279210223E0,1.395746418E1
9.591415000E-1,-2.370438538E1,-8.751139412E0,2.170468909E-1,2.526910043E1
9.691555000E-1,-2.307037413E1,-1.092671294E1,-2.079252812E1,3.292361529E1
9.791705000E-1,-4.303748648E0,-6.721082032E0,-3.181488280E1,3.280063968E1
9.891855000E-1,5.162033660E0,-2.559053226E0,-2.102428836E1,2.179945059E1
9.992005000E-1,4.929419142E0,2.383351997E0,-6.148955369E0,8.233419214E0
1.009215500E0,1.333909519E0,3.566460071E0,-8.527871668E-1,3.902076113E0
1.019229500E0,-1.345940019E0,2.391340463E0,-1.330489044E0,3.049633559E0
1.029244500E0,-1.358932533E0,3.289411392E0,3.269925545E0,4.833149905E0
1.039259500E0,-7.849452858E-1,8.229245009E0,7.696204060E0,1.129460798E1
1.049274500E0,-3.242234302E-1,1.366285903E1,1.107014631E1,1.758769391E1
1.059288500E0,-1.359602770E0,1.668522048E1,1.098559206E1,2.002319493E1
1.069303500E0,-2.925015836E0,1.620573711E1,9.925123490E0,1.922731674E1
1.079318500E0,-2.980585434E0,1.444392308E1,8.060911272E0,1.680741188E1
1.089333500E0,-2.110917064E0,1.311128299E1,4.685245264E0,1.408237323E1
1.099348500E0,-2.605862526E0,1.316950606E1,5.815204486E0,1.463020890E1
1.109362500E0,-2.555365972E0,1.377747615E1,5.875599207E0,1.519445328E1
1.119377500E0,-2.800297357E0,1.284986802E1,5.398280468E0,1.421626552E1
1.129392500E0,-4.297820157E0,1.051824517E1,5.954671104E0,1.282820515E1
1.139407500E0,-4.389178223E0,8.804277738E0,4.167742705E0,1.068411303E1
1.149422500E0,-3.054754734E0,8.301903096E0,2.767481613E0,9.268876738E0
1.159436500E0,-2.092466467E0,6.833625146E0,1.230631611E0,7.251986122E0
1.169451500E0,-1.904477022E0,4.004080893E0,-8.705112469E-1,4.518571274E0
1.179466500E0,-1.291706948E0,7.870691407E-1,-2.493057457E0,2.916045294E0
1.189481500E0,2.042055647E-1,-1.869306897E0,-4.160525779E0,4.565740131E0
1.199495500E0,2.061929091E0,-4.403028231E0,-3.047083479E0,5.737850373E0
1.209510500E0,3.441788662E0,-6.367528968E0,-3.220741691E0,7.922405657E0
1.219525500E0,3.703446300E0,-8.596451907E0,-3.890651633E0,1.013664984E1
1.229540500E0,3.122930052E0,-1.005813712E1,-4.435940161E0,1.142787730E1
1.239555500E0,2.532195503E0,-9.473197455E0,-5.976144419E0,1.148336998E1
1.249569500E0,1.933614282E0,-8.058108702E0,-5.334287370E0,9.855282938E0
1.259584500E0,9.308785591E-1,-7.215164738E0,-3.732666298E0,8.176670152E0
1.269599500E0,9.454209499E-2,-9.726458491E0,-3.845924234E0,1.045963987E1
1.279614500E0,-1.278653039E0,-1.015691530E1,-6.483712558E0,1.211760746E1
1.289628500E0,4.687329796E-1,-8.053614532E0,-4.387900314E0,9.183359233E0
1.299643500E0,3.656509823E0,-1.406969543E1,-2.457962469E0,1.474340440E1
1.309658500E0,3.754597158E0,-1.239668190E1,-5.279578482E0,1.398744691E1
1.319673500E0,9.767716737E-1,-7.173325571E0,-7.455833795E0,1.039231159E1
1.329688500E0,-5.792390697E-2,-8.801336589E0,2.954867918E0,9.284294553E0
1.339702500E0,3.183652217E0,-2.140246522E1,3.680290449E0,2.194870604E1
1.349717500E0,4.762604804E0,-1.977985352E1,-1.012601160E1,2.272578097E1
1.359732500E0,4.221126614E0,-2.120430542E1,-5.594915314E0,2.233256715E1
1.369747500E0,7.143518804E0,-1.567892519E1,-1.095823879E1,2.041914674E1
1.379761500E0,6.031935042E0,-9.449018049E0,-1.497966135E1,1.870984865E1
1.389776500E0,4.084177807E0,-1.129881103E1,-4.656580166E0,1.288516115E1
1.399791500E0,3.231152366E0,-1.144966452E1,-1.943155476E-1,1.189844199E1
1.409806500E0,9.428206931E-1,-1.113300037E1,-8.015597105E-2,1.117313891E1
1.419821500E0,-1.012371715E0,-6.408646588E0,-1.562947588E0,6.673713565E0
1.429835500E0,-1.988493032E0,-1.490272252E0,-1.896983669E0,3.126269816E0
1.439850500E0,2.198748967E-1,-2.038622382E0,-1.357011576E-1,2.054930897E0
1.449865500E0,4.891029832E0,-8.974375581E0,-5.277887467E0,1.150294249E1
1.459880500E0,3.364437016E0,-5.202986389E0,-6.009250184E0,8.631430448E0
1.469894500E0,-9.674860029E-1,1.245621241E1,-1.214282431E0,1.255259888E1
1.479909500E0,3.781163397E-1,-2.932998455E-1,3.144979318E0,3.181177718E0
1.489924500E0,3.965274677E0,-9.294383168E-1,-2.690936006E0,4.881433748E0
1.499939500E0,4.637196646E0,2.538407292E1,-5.468430684E0,2.637723422E1
1.509954500E0,3.785999337E0,4.447524138E1,-3.491543205E0,4.477244422E1
1.519968500E0,-6.684840989E-1,3.473937005E1,-1.213201938E0,3.476697515E1
1.529983125E0,-7.466941166E0,1.840219806E1,-3.019443691E-1,1.986170371E1
1.539998125E0,-1.231203293E1,1.518189549E1,5.518485773E0,2.031082940E1
1.550013125E0,-1.364080333E1,1.457288810E1,4.270235624E0,2.041263078E1
1.560027125E0,-1.349773717E1,1.274797794E1,4.936479655E0,1.921116034E1
1.570042125E0,-1.226516984E1,1.453610678E1,8.219101260E0,2.071922819E1
1.580057125E0,-1.400203964E1,1.238861509E1,8.912717861E0,2.071162566E1
1.590072125E0,-1.589959677E1,5.496327165E0,2.736026809E0,1.704384442E1
1.600087125E0,-1.521462821E1,1.415192834E0,-2.042597319E0,1.541622152E1
1.610101125E0,-8.367308881E0,5.209342897E-1,-4.354884596E0,9.447129209E0
1.620116125E0,7.545404953E-1,-1.037348682E0,-2.573974736E0,2.875894572E0
1.630131125E0,6.279783896E0,-3.641766946E0,7.594305217E-1,7.298964788E0
1.640146125E0,1.170122460E1,-2.990701118E0,-2.464069301E0,1.232617491E1
1.650160125E0,1.135096352E1,-4.364060047E0,-5.421526659E-1,1.217305723E1
1.660175125E0,7.488320341E0,-6.750292382E0,-4.411455238E-1,1.009138237E1
1.670190125E0,4.272907802E0,-8.127950184E0,-4.530499871E0,1.023946993E1
1.680205125E0,1.712002178E0,-1.098462610E1,-3.298383944E0,1.159621916E1
1.690219125E0,7.511169505E-1,-1.200697668E1,-2.546640172E0,1.229703386E1
1.700234125E0,3.163759990E0,-1.220091946E1,-1.936273888E0,1.275229272E1
1.710249125E0,6.064591742E0,-1.223799783E1,-7.118330169E-1,1.367678946E1
1.720264125E0,6.528885223E0,-1.249170618E1,7.542851181E-1,1.411516955E1
1.730279125E0,5.782412131E0,-1.300853689E1,3.257628851E0,1.460378265E1
1.740293125E0,3.684405427E0,-1.420425858E1,5.765056425E0,1.576615618E1
1.750308125E0,-7.313089228E-1,-1.843627797E1,2.093324254E0,1.856914550E1
1.760323125E0,-2.802811368E0,-2.048258359E1,3.239764438E0,2.092577491E1
1.770338125E0,4.616737531E0,-8.457851261E0,3.249519932E0,1.016901633E1
1.780352125E0,4.698098613E0,-1.055926806E1,6.617157129E0,1.331754636E1
1.790367125E0,2.833408678E-1,-1.060552538E1,4.201564754E0,1.141098581E1
1.800382125E0,-3.825522714E0,-1.011373011E1,4.371527526E-1,1.082188816E1
1.810397125E0,-3.694537482E0,-9.491552449E0,1.273161919E0,1.026450761E1
1.820412125E0,-9.113274434E-1,-8.161611435E0,2.601346722E0,8.614489172E0
1.830426125E0,1.211735895E0,-5.877645732E0,1.487417349E0,6.182833784E0
1.840441125E0,3.245075756E0,-2.824544883E0,-1.421490577E0,4.530916676E0
1.850456125E0,3.553406746E0,-2.101302195E-1,-4.786335144E0,5.964885441E0
1.860471125E0,2.805694630E0,1.258751748E0,-6.530910698E0,7.218668358E0
1.870485125E0,1.105672593E0,2.118844426E0,-3.989837660E0,4.650894338E0
1.880500125E0,-3.077091098E0,2.581880171E0,-3.459615068E0,5.301276381E0
1.890515125E0,-4.740723353E0,5.590079666E0,-3.625253824E0,8.177158056E0
1.900530125E0,-1.756805591E0,1.090156523E1,-3.686393480E0,1.164130522E1
1.910544125E0,2.217232600E0,1.614744621E1,-3.777060699E0,1.673087945E1
1.920559125E0,5.775924060E0,2.083841005E1,-3.561863867E0,2.191546273E1
1.930574125E0,5.485203422E0,2.253538664E1,-3.877298347E0,2.351519828E1
1.940589125E0,3.165108650E0,2.165642149E1,-3.772880524E0,2.220930282E1
1.950604125E0,7.640568388E-1,1.976122195E1,-3.268637111E0,2.004429257E1
1.960618125E0,-6.516274533E-1,1.924809837E1,-2.615223626E0,1.943587672E1
1.970633125E0,-1.469011776E0,1.780610717E1,-2.204837088E0,1.800213195E1
1.980648125E0,-1.795458025E0,1.667790445E1,-2.880535774E0,1.701980178E1
1.990663125E0,-8.634539500E-1,1.628453535E1,-5.449134872E0,1.719374058E1
2.000677125E0,-1.240744078E0,1.593129570E1,-3.060485297E0,1.626997845E1
2.010692125E0,-1.116641677E0,1.325234473E1,-3.197823822E0,1.367836272E1
2.020707125E0,-3.745158802E-1,7.697223229E0,-2.062339565E0,7.977515407E0
2.030722125E0,2.003045583E-1,3.238214341E0,-8.131734502E-1,3.344757853E0
2.040737125E0,-1.496939101E-1,5.520116562E-1,-4.292905864E-1,7.151332343E-1
2.050751125E0,-2.109584776E-1,-6.758732253E-1,-9.935004115E-1,1.219979985E0
2.060766125E0,-3.356480709E0,-3.443838696E0,-1.650664593E0,5.084356529E0
2.070781125E0,1.963099452E0,-4.013555721E0,-5.272317410E-2,4.468240002E0
2.080796125E0,3.605289676E0,-5.350129232E0,3.115165827E0,7.164234402E0
2.090810125E0,4.309164047E0,-8.084823461E0,4.331933105E-1,9.171745833E0
2.100825125E0,2.609197486E0,-9.460869185E0,-7.838204277E-1,9.845320296E0
2.110840125E0,1.413198641E0,-1.159979178E1,4.272618949E-2,1.168563756E1
2.120855125E0,2.631449942E0,-1.257890687E1,1.653604866E0,1.295715385E1
2.130869125E0,4.062383480E0,-1.315373729E1,3.279905573E0,1.415208623E1
2.140884125E0,3.583854952E0,-1.564776421E1,6.910324243E0,1.747710280E1
2.150899125E0,2.270132068E0,-1.781065981E1,7.413422771E0,1.942503384E1
2.160914125E0,1.994852610E0,-1.667498669E1,4.601504365E0,1.741288202E1
2.170929125E0,2.686035454E0,-1.259928091E1,4.276230482E0,1.357360722E1
2.180943125E0,3.858617370E0,-1.108518769E1,4.222135844E0,1.247384244E1
2.190958125E0,4.669923220E0,-1.303493590E1,2.883389508E0,1.414325535E1
2.200973125E0,3.241105204E0,-1.139461415E1,1.023534635E0,1.189073664E1
2.210988125E0,2.686233675E0,-8.657076423E0,7.641731983E-1,9.096416010E0
2.221002125E0,3.823514780E0,-9.106510375E0,1.847711083E0,1.004797655E1
2.231017125E0,-7.840535854E-1,-6.125297534E0,4.534495273E0,7.661309111E0
2.241032125E0,-4.882439688E0,-3.857273095E0,3.502031063E0,7.140097661E0
2.251047125E0,-5.246378576E0,-3.262386146E0,5.929752610E0,8.563271427E0
2.261061125E0,-4.378096288E0,-4.814226070E0,4.580185709E0,7.957549930E0
2.271076125E0,-1.460268142E0,-5.807942244E0,1.856671356E0,6.269912653E0
2.281091125E0,6.381889437E-1,-6.072640434E0,-4.430724737E-1,6.122136897E0
2.291106125E0,1.427946049E0,-6.011631755E0,-1.696425780E0,6.407542954E0
2.301121125E0,2.337193346E0,-5.512195923E0,-1.696352982E0,6.222892420E0
2.311135125E0,3.690148562E0,-4.355664030E0,-2.034808828E0,6.060482862E0
2.321150125E0,3.925462447E0,-1.361009025E0,-4.073501668E0,5.818506409E0
2.331165125E0,2.022741783E0,4.400063692E0,-6.428449938E0,8.048416827E0
2.341180125E0,-4.545137206E-1,1.212729951E1,-6.675884224E0,1.385082692E1
2.351194125E0,-3.576861098E0,1.960727880E1,-4.064741955E0,2.034112692E1
2.361209125E0,-6.436293393E0,2.365105644E1,3.954828626E-1,2.451437843E1
2.371224125E0,-6.695978765E0,2.437924061E1,3.838010028E-1,2.528499174E1
2.381239125E0,-3.379759644E0,2.395129459E1,-1.682781887E-1,2.418916297E1
2.391253125E0,-4.321258428E0,1.901897523E1,6.489614153E0,2.055504281E1
2.401268125E0,-8.439669929E0,1.518394319E1,5.315441794E0,1.816684014E1
2.411283125E0,-9.112664570E0,1.717519026E1,-5.608335843E0,2.023564298E1
2.421298125E0,-7.411881444E0,1.804348775E1,-8.628731461E0,2.132975488E1
2.431313125E0,-6.280576193E0,1.540718286E1,-4.417634575E0,1.721459893E1
2.441327125E0,-4.016534877E0,1.155845781E1,-1.921654387E0,1.238641413E1
2.451342125E0,-1.410842067E0,7.639491915E0,-1.771028066E0,7.967989236E0
2.461357125E0,7.661402017E-1,3.037764772E0,-8.256709966E-1,3.239863919E0
2.471372125E0,2.536489698E0,-1.516212255E0,-1.633054534E0,3.376321475E0
2.481386125E0,2.095315815E0,-6.512881393E0,1.910500531E0,7.103378400E0
2.491401125E0,1.228716063E0,-9.561892700E0,1.436063593E0,9.746887391E0
2.501416125E0,1.774308646E0,-1.019477953E1,-1.137124692E0,1.041031957E1
2.511431125E0,2.677196218E0,-1.146790315E1,-7.325152034E-1,1.179901525E1
2.521445125E0,3.884257995E0,-1.167848478E1,3.731909376E-1,1.231315306E1
2.531460542E0,4.314341172E0,-1.143713744E1,5.132481247E-1,1.223458525E1
2.541475542E0,4.843508049E0,-1.201485872E1,7.623272324E-1,1.297680790E1
2.551490542E0,5.759361237E0,-1.211452919E1,1.227630820E0,1.346993455E1
2.561505542E0,5.816907195E0,-1.142371458E1,2.356951818E0,1.303429652E1
2.571519542E0,4.959547505E0,-1.231529334E1,3.260158064E0,1.367085192E1
2.581534542E0,5.005152279E0,-1.074249758E1,3.450425584E0,1.234334802E1
2.591549542E0,4.402398778E0,-9.850458055E0,3.479168158E0,1.133654489E1
2.601564542E0,3.765157522E0,-1.026333697E1,5.418860328E0,1.220149762E1
2.611578542E0,2.038847207E0,-7.580347329E0,4.753715282E0,9.176947888E0
2.621593542E0,9.361886349E-1,-7.283104706E0,3.761178491E0,8.250244055E0
2.631608542E0,3.403401107E-1,-6.773881220E0,3.854015611E0,7.800944462E0
2.641623542E0,3.729146567E-1,-5.327368360E0,4.100995861E0,6.733356224E0
2.651637542E0,8.342286891E-1,-4.269172601E0,4.390130442E0,6.180211768E0
2.661652542E0,5.810576999E-1,-3.646003838E0,4.740258207E0,6.008412428E0
2.671667542E0,1.086066805E0,-3.184465565E0,4.212666278E0,5.391374520E0
2.681682542E0,1.162090549E0,-3.069201742E0,3.308510444E0,4.660117503E0
2.691697542E0,1.397489511E0,-2.495119185E0,1.902438098E0,3.434802381E0
2.701711542E0,3.942592450E0,-9.794828814E-1,7.160899360E-1,4.125070513E0
2.711726542E0,6.906044666E0,-3.304910606E-1,-2.997349986E-1,6.920442062E0
2.721741542E0,2.835757212E0,-2.181257606E0,-3.087855237E0,4.725912999E0
2.731756542E0,-6.327067405E-2,-2.865952526E0,-5.805661830E0,6.474827900E0
2.741770542E0,-2.044054153E0,-3.260776992E0,-6.099988446E0,7.212536517E0
2.751785542E0,-2.169963709E0,1.799831450E-1,-5.022748890E0,5.474407990E0
2.761800542E0,-1.715925367E0,9.510303885E0,-3.321288657E0,1.021867106E1
2.771815542E0,-5.687426451E0,1.969777265E1,3.814702296E-1,2.050596465E1
2.781829542E0,-1.192399650E1,2.713882468E1,4.397166982E0,2.996719164E1
2.791844542E0,-1.157302791E1,2.918463446E1,3.716673871E0,3.161473593E1
2.801859542E0,-7.767532489E0,2.496625194E1,1.501064458E0,2.618972111E1
2.811874542E0,-7.489714317E0,1.909998372E1,2.940015113E-1,2.051808070E1
2.821888542E0,-7.669878141E0,1.694074732E1,-6.387287148E-1,1.860709340E1
2.831903542E0,-6.914906121E0,1.780325139E1,-1.192859987E0,1.913621179E1
2.841918542E0,-5.605960704E0,1.782477849E1,-9.565765603E-1,1.871001236E1
2.851933542E0,-4.635578721E0,1.549415084E1,-3.539227541E-1,1.617660538E1
2.861948542E0,-4.027632308E0,1.316733908E1,3.958939219E-1,1.377524492E1
2.871962542E0,-1.542507330E0,9.292093399E0,9.590205503E-1,9.467948511E0
2.881977542E0,-2.620586108E-1,4.913600670E0,-8.371253997E-2,4.921295972E0
2.891992542E0,7.555182959E-1,1.487010675E0,-6.944125535E-1,1.806714542E0
2.902007542E0,1.214802029E0,-1.774429391E0,-7.713170341E-1,2.284572958E0
2.912021542E0,1.530306237E0,-4.836680548E0,-9.325864577E-1,5.158006727E0
2.922036542E0,2.103466249E0,-7.564179193E0,-1.461092599E0,7.985998291E0
2.932051542E0,2.745041754E0,-9.924970293E0,-1.757876508E0,1.044655060E1
2.942066542E0,3.331503158E0,-1.149999969E1,-1.242703772E0,1.203715992E1
2.952080542E0,3.548613784E0,-1.249985836E1,9.654337764E-3,1.299381438E1
2.962095542E0,3.530432451E0,-1.369374987E1,1.899704232E0,1.426855336E1
2.972110542E0,4.000088999E0,-1.539512591E1,4.149920684E0,1.643874859E1
2.982125542E0,4.959720583E0,-1.687187296E1,5.916616840E0,1.855438709E1
2.992139542E0,5.903650054E0,-1.726467839E1,6.382927610E0,1.933038977E1
3.002154542E0,6.097975835E0,-1.636723720E1,5.606686928E0,1.834411898E1
3.012169542E0,5.348548145E0,-1.476726475E1,4.319360422E0,1.628913595E1
3.022184542E0,4.585376574E0,-1.307049048E1,3.929044744E0,1.439794403E1
3.032199542E0,3.899074255E0,-1.149620017E1,3.920446413E0,1.275677461E1
3.042213542E0,3.086327067E0,-1.021962085E1,3.802960356E0,1.133263308E1
3.052228542E0,2.436074879E0,-9.144521370E0,3.642757756E0,1.014033609E1
3.062243542E0,1.904521899E0,-8.179809140E0,3.314309128E0,9.028905040E0
3.072258542E0,1.527459520E0,-7.143397767E0,2.731874117E0,7.798999964E0
3.082272542E0,1.310086939E0,-6.178949831E0,1.949875681E0,6.610428426E0
3.092287542E0,1.197990261E0,-5.441124187E0,1.099210469E0,5.678844665E0
3.102302542E0,1.074837812E0,-5.085124063E0,3.594151899E-1,5.209888899E0
3.112317542E0,7.746177873E-1,-5.142542551E0,-2.351896316E-2,5.200608594E0
3.122331542E0,6.112435122E-1,-5.133817336E0,-3.052781591E-1,5.179082334E0
3.132346542E0,9.837867245E-1,-5.030951364E0,-4.120313600E-1,5.142769467E0
3.142361542E0,1.242036898E0,-5.455587859E0,-7.300298443E-1,5.642609159E0
3.152376542E0,1.949815163E0,-5.613715281E0,-1.640606944E0,6.164995505E0
3.162390542E0,2.725626659E0,-4.665080556E0,-2.867777149E0,6.116875269E0
3.172405542E0,2.440827788E0,-2.468033128E0,-4.105014360E0,5.375869298E0
3.182420542E0,1.447526182E0,2.472447776E0,-5.234530363E0,5.967297393E0
3.192435542E0,-1.629633620E-1,1.379271166E1,-5.051036550E0,1.468939829E1
3.202449542E0,-6.710388644E0,3.081570825E1,1.634868633E0,3.158021510E1
3.212464542E0,-1.560760904E1,3.945738544E1,8.148768611E0,4.320746644E1
3.222479542E0,-9.708451406E0,3.560844872E1,8.234932011E0,3.781573422E1
3.232494542E0,-8.099505819E0,2.135797726E1,6.422989808E0,2.372804217E1
3.242509542E0,-1.204430998E1,1.442181593E1,2.440666405E0,1.894758639E1
3.252523542E0,-1.181094175E1,1.715499398E1,-1.025850717E0,2.085292625E1
3.262538542E0,-1.062728287E1,2.048084580E1,-2.172749469E0,2.317595793E1
3.272553542E0,-8.716825612E0,2.037591167E1,-1.621594137E0,2.222139493E1
3.282568542E0,-6.828021759E0,1.658232469E1,-1.220620155E0,1.797457334E1
3.292582542E0,-3.338898717E0,1.188112939E1,-1.448954072E0,1.242613971E1
3.302597542E0,-3.772855966E-1,7.496260859E0,-2.203217555E0,7.822431776E0
3.312612542E0,1.343488720E0,4.280352477E0,-2.464920363E0,5.118809594E0
3.322627542E0,2.299311282E0,1.026358255E0,-2.350606420E0,3.444647178E0
3.332641542E0,2.900345848E0,-2.286961817E0,-2.170799861E0,4.284223667E0
3.342656542E0,3.352282408E0,-5.196681336E0,-1.993334527E0,6.497436171E0
3.352671542E0,3.556970624E0,-7.800964530E0,-2.014628917E0,8.807145808E0
3.362686542E0,3.834616304E0,-9.682034855E0,-1.761505290E0,1.056167515E1
3.372700542E0,4.030274080E0,-1.063499067E1,-8.291211462E-1,1.140322663E1
3.382715542E0,3.826376992E0,-1.144611877E1,4.588894844E-1,1.207747388E1
3.392730542E0,3.772269198E0,-1.279988251E1,2.272360150E0,1.353627082E1
3.402745542E0,4.278621409E0,-1.454238902E1,4.253795593E0,1.574428330E1
3.412760542E0,4.938016888E0,-1.620273748E1,5.673436403E0,1.786338695E1
3.422774542E0,5.520027684E0,-1.709501908E1,5.956297799E0,1.892585181E1
3.432789542E0,5.506549267E0,-1.660750982E1,5.635027798E0,1.838164861E1
3.442804542E0,4.911189862E0,-1.513240466E1,5.142912680E0,1.672001817E1
3.452819542E0,3.894339765E0,-1.355445867E1,4.985475229E0,1.495808127E1
3.462833542E0,2.713193724E0,-1.196110527E1,4.916542404E0,1.321369928E1
3.472848542E0,1.692007770E0,-1.060400979E1,4.557122244E0,1.166513082E1
3.482863542E0,1.147372230E0,-9.165778338E0,3.790838785E0,9.984909327E0
3.492878542E0,9.154691724E-1,-7.644632202E0,2.761014301E0,8.179345040E0
3.502892542E0,8.158614153E-1,-6.232170019E0,1.580099079E0,6.480917072E0
3.512907542E0,8.070762661E-1,-4.806470908E0,3.890822080E-1,4.889265758E0
3.522922542E0,9.848361535E-1,-3.537536818E0,-4.684850577E-1,3.701830255E0
3.532938042E0,1.171674574E0,-2.918545892E0,-6.912038939E-1,3.220014635E0
3.542952042E0,1.053203115E0,-3.612947189E0,-2.317394820E-1,3.770454532E0
3.552967042E0,1.352227530E0,-4.696504077E0,-2.041262984E-2,4.887339411E0
3.562982042E0,1.525795549E0,-5.763120412E0,-3.733575833E-1,5.973357919E0
3.572997042E0,1.478752068E0,-7.266191050E0,-7.859783426E-1,7.456674997E0
3.583012042E0,1.342311091E0,-8.806962780E0,-1.020908943E0,8.966975384E0
3.593026042E0,1.181271024E0,-9.738594972E0,-9.582510567E-1,9.856666696E0
3.603041042E0,8.895803328E-1,-9.765360602E0,-1.037980181E0,9.860579278E0
3.613056042E0,2.625851525E-1,-8.058173021E0,-1.389006078E0,8.181224926E0
3.623071042E0,-8.938156173E-1,-4.880667397E0,-1.542787850E0,5.196153861E0
3.633085042E0,-3.685070255E0,3.892772126E-1,-2.587387079E0,4.519496812E0
3.643100042E0,-5.319900881E0,1.086295022E1,-6.109819955E0,1.355119673E1
3.653115042E0,-1.059039747E1,3.326652425E1,-4.593769960E-1,3.491459840E1
3.663130042E0,-1.998258116E1,4.746757504E1,1.396316150E1,5.336144779E1
3.673144042E0,-9.724491488E0,4.078698615E1,9.173845156E0,4.292206203E1
3.683159042E0,-5.197727988E0,1.872905040E1,4.542824632E0,1.996073547E1
3.693174042E0,-7.957084018E0,1.505321465E1,-7.030471368E-1,1.704138294E1
3.703189042E0,-8.035888698E0,2.220230117E1,-2.980422882E0,2.379917236E1
3.713203042E0,-7.481815898E0,2.308890512E1,-2.868643999E-2,2.427088651E1
3.723218042E0,-6.134993972E0,1.871504748E1,1.416270622E0,1.974580907E1
3.733233042E0,-4.405521483E0,1.377159853E1,1.498889440E0,1.453658197E1
3.743248042E0,-2.529012571E0,9.463721457E0,3.460021158E-1,9.801920519E0
3.753262042E0,-1.632839210E0,5.919092551E0,-7.239249127E-1,6.182708775E0
3.763277042E0,-7.726019597E-1,3.521492059E0,-1.020783227E0,3.746974580E0
3.773292042E0,-3.563357538E-1,7.443938220E-1,-1.425953318E0,1.647555825E0
3.783307042E0,3.138305891E-1,-1.974197175E0,-2.517581849E0,3.214679221E0
3.793321042E0,1.596841996E0,-4.045987887E0,-3.569523719E0,5.626848312E0
3.803336042E0,2.888069619E0,-5.756566268E0,-4.150172699E0,7.661784045E0
3.813351042E0,4.195033414E0,-7.210707405E0,-3.479988230E0,9.038967016E0
3.823366042E0,5.443373610E0,-8.713123739E0,-1.837722138E0,1.043676503E1
3.833381042E0,6.417442555E0,-1.008746909E1,1.861285686E-2,1.195579140E1
3.843395042E0,7.036707716E0,-1.138399795E1,1.954838506E0,1.352523783E1
3.853410042E0,7.217659745E0,-1.307423387E1,3.478942163E0,1.533405497E1
3.863425042E0,6.709509223E0,-1.520354890E1,4.189781738E0,1.713825208E1
3.873440042E0,5.818312865E0,-1.714975721E1,4.166993676E0,1.858307760E1
3.883454042E0,5.173935667E0,-1.762167195E1,4.066354324E0,1.881032084E1
3.893469042E0,5.095589994E0,-1.610384236E1,3.922250279E0,1.734020828E1
3.903484042E0,4.711164216E0,-1.416827130E1,3.794326649E0,1.540557999E1
3.913499042E0,3.680948553E0,-1.267075494E1,3.754791870E0,1.371845016E1
3.923513042E0,2.695420235E0,-1.122697448E1,3.503022751E0,1.206571235E1
3.933528042E0,1.894500503E0,-9.966321802E0,2.967893761E0,1.057000926E1
3.943543042E0,1.478125392E0,-8.611772781E0,2.288110648E0,9.032327244E0
3.953558042E0,1.192498117E0,-7.234406170E0,1.406242208E0,7.465668191E0
3.963572042E0,8.536784287E-1,-6.004111651E0,4.209692676E-1,6.079090286E0
3.973587042E0,5.420379142E-1,-5.137994587E0,-6.217398490E-1,5.203782654E0
3.983602042E0,5.133394875E-1,-4.857179716E0,-1.225543656E0,5.035639927E0
3.993617042E0,8.197220394E-1,-5.103545716E0,-1.048979963E0,5.274322900E0
4.003631042E0,1.216723716E0,-5.293463280E0,-1.180834384E0,5.558375657E0
4.013646042E0,1.438497350E0,-5.496225423E0,-2.057358761E0,6.042391381E0
4.023661042E0,1.593013386E0,-5.773688085E0,-2.260772430E0,6.401894855E0
4.033676042E0,1.626374967E0,-6.147299438E0,-2.335148575E0,6.774016886E0
4.043690042E0,1.764377881E0,-5.963900349E0,-1.240934990E0,6.342007279E0
4.053705042E0,1.054622965E0,-4.060191359E0,5.553773135E-2,4.195291159E0
4.063720042E0,-1.116963639E0,9.193390059E-1,-1.662610162E0,2.203874890E0
4.073735042E0,-5.708424972E0,1.112050370E1,-7.807471311E0,1.473798923E1
4.083750042E0,-1.449928686E1,2.942101868E1,-4.917783183E0,3.316640244E1
4.093764042E0,-2.229340313E1,3.980304009E1,1.071656401E1,4.686280580E1
4.103779042E0,-1.006242313E1,3.026027188E1,1.122978582E1,3.380894117E1
4.113794042E0,-4.575326380E0,1.343634959E1,5.430477576E0,1.519734150E1
4.123809042E0,-7.288177165E0,1.503078590E1,-8.313306628E-1,1.672522531E1
4.133823042E0,-8.182383669E0,2.174514012E1,-2.609832201E0,2.337977215E1
4.143838042E0,-7.040961565E0,2.268218450E1,-1.067315662E0,2.377384689E1
4.153853042E0,-4.679514992E0,1.947311794E1,6.943628521E-1,2.003951902E1
4.163868042E0,-2.045119369E0,1.580184302E1,1.059344738E0,1.596881234E1
4.173882042E0,-5.499087051E-2,1.193995940E1,-3.222771844E-1,1.194443456E1
4.183897042E0,5.747732587E-1,7.866596017E0,-1.794058202E0,8.089026024E0
4.193912042E0,1.085924718E0,4.546548139E0,-2.077806036E0,5.115428662E0
4.203927042E0,2.143730761E0,1.508678702E0,-1.935094213E0,3.258263742E0
4.213941042E0,3.086643109E0,-1.450053933E0,-1.579364230E0,3.758246062E0
4.223956042E0,3.612762417E0,-3.812586919E0,-1.106789045E0,5.367760547E0
4.233971042E0,3.885706351E0,-5.660062067E0,-7.822337857E-1,6.909913613E0
4.243986042E0,4.101072167E0,-7.167612841E0,-3.896678066E-1,8.267122097E0
4.254000042E0,4.367780922E0,-8.476522005E0,2.355199993E-2,9.535695580E0
4.264015042E0,4.420012930E0,-9.857016292E0,7.312255999E-1,1.082737158E1
4.274030042E0,4.506732109E0,-1.150472892E1,1.965592412E0,1.251131389E1
4.284045042E0,4.890611172E0,-1.336942353E1,3.501976099E0,1.466026602E1
4.294059042E0,5.401539121E0,-1.523726395E1,5.009206738E0,1.692462672E1
4.304074042E0,5.664608277E0,-1.658416072E1,5.879336162E0,1.848482533E1
4.314089042E0,5.136360875E0,-1.682833810E1,5.844242343E0,1.853996588E1
4.324104042E0,4.264745674E0,-1.549616228E1,5.005140000E0,1.683361303E1
4.334118042E0,3.732307864E0,-1.389110276E1,4.000961111E0,1.492985424E1
4.344133042E0,3.198546537E0,-1.278572640E1,3.335291569E0,1.359520759E1
4.354148042E0,2.631397317E0,-1.155355551E1,2.838839571E0,1.218474074E1
4.364163042E0,2.002711999E0,-1.035876353E1,2.470269396E0,1.083591565E1
4.374177042E0,1.530344536E0,-9.229638119E0,2.125785656E0,9.594120015E0
4.384192042E0,1.429448930E0,-8.020011753E0,1.822239150E0,8.347722341E0
4.394207042E0,1.401691028E0,-6.816478186E0,1.572967961E0,7.134657721E0
4.404222042E0,1.369689801E0,-5.662342481E0,1.298333597E0,5.968571241E0
4.414236042E0,1.417050932E0,-4.783857386E0,9.758947375E-1,5.083866184E0
4.424251042E0,1.527784772E0,-4.320410582E0,5.648483410E-1,4.617264077E0
4.434266042E0,1.555596468E0,-4.554073505E0,8.193703294E-3,4.812435246E0
4.444281042E0,1.755576945E0,-4.836477649E0,-6.113301972E-1,5.181437163E0
4.454296042E0,2.204175037E0,-4.825911731E0,-1.522405918E0,5.519558986E0
4.464310042E0,2.505122017E0,-5.086476524E0,-2.580951633E0,6.229702327E0
4.474325042E0,2.887251009E0,-5.389402056E0,-3.864903712E0,7.233211846E0
4.484340042E0,2.872058773E0,-4.972108494E0,-4.222068893E0,7.127162844E0
4.494355042E0,2.257717260E0,-2.790624016E0,-3.370770427E0,4.924120520E0
4.504369042E0,5.738302490E-1,3.006362300E0,-3.295035828E0,4.497194297E0
4.514384042E0,-5.282338368E0,1.537725798E1,-3.984800284E0,1.674042398E1
4.524399042E0,-1.701386090E1,3.252327531E1,2.002531028E-1,3.670524487E1
4.534413292E0,-1.419876687E1,3.909531883E1,6.392783092E0,4.208226005E1
4.544427292E0,-3.196823655E0,2.515959831E1,5.569387540E0,2.596619237E1
4.554442292E0,-4.833912476E0,1.288104654E1,3.303492072E0,1.414924484E1
4.564457292E0,-5.421139573E0,1.746257740E1,-6.301208094E-1,1.829555727E1
4.574472292E0,-5.340919282E0,2.216638289E1,-1.674324474E0,2.286213708E1
4.584486292E0,-4.367020492E0,2.252939909E1,1.222348738E-1,2.294906606E1
4.594501292E0,-3.639780062E0,1.967296876E1,1.981259734E0,2.010470315E1
4.604516292E0,-2.746192194E0,1.596055751E1,1.977713398E0,1.631540124E1
4.614531292E0,-2.156036665E0,1.168256497E1,7.165727699E-1,1.190144087E1
4.624545292E0,-2.018816108E0,7.613152547E0,-1.220518559E0,7.970280782E0
4.634560292E0,-1.408243125E0,4.492275453E0,-2.581650083E0,5.369227560E0
4.644575292E0,-7.385267258E-1,1.321285965E0,-3.107971120E0,3.456978856E0
4.654590292E0,-5.086931437E-2,-1.693753603E0,-3.132050832E0,3.561057619E0
4.664604292E0,8.403475079E-1,-4.124652234E0,-3.120623910E0,5.239965036E0
4.674619292E0,1.494214152E0,-6.224451694E0,-2.751703487E0,6.967664379E0
4.684634292E0,1.911693802E0,-8.205487188E0,-1.935559066E0,8.644708328E0
4.694649292E0,2.384048839E0,-1.006965497E1,-7.625488418E-1,1.037608408E1
4.704663292E0,3.027126932E0,-1.146243835E1,1.319082150E-1,1.185615410E1
4.714678292E0,3.772499578E0,-1.245694097E1,1.054445063E0,1.305829184E1
4.724693292E0,4.343363535E0,-1.350727164E1,2.431262620E0,1.439521559E1
4.734708292E0,4.570461204E0,-1.455521197E1,3.808175780E0,1.572404254E1
4.744722292E0,4.756676019E0,-1.534205424E1,4.597439673E0,1.670751467E1
4.754737292E0,5.080592471E0,-1.513532359E1,4.773720361E0,1.666369845E1
4.764752292E0,4.930139519E0,-1.387648823E1,4.481177437E0,1.539299036E1
4.774767292E0,4.280018601E0,-1.256189381E1,4.016407993E0,1.386547037E1
4.784781292E0,3.524076528E0,-1.163861145E1,3.735643408E0,1.272129802E1
4.794796292E0,2.822280549E0,-1.102564081E1,3.359731761E0,1.186666846E1
4.804811292E0,2.301042350E0,-1.036610295E1,3.057154431E0,1.104975473E1
4.814826292E0,1.871893851E0,-9.518164882E0,2.699097842E0,1.006899094E1
4.824841292E0,1.462853196E0,-8.554406333E0,2.037753485E0,8.914608598E0
4.834855292E0,1.114698720E0,-7.811154472E0,1.170987088E0,7.976709734E0
4.844870292E0,8.475161943E-1,-7.314763286E0,3.774225676E-1,7.373363779E0
4.854885292E0,5.940250701E-1,-7.102049181E0,-1.083149922E-1,7.127671464E0
4.864900292E0,3.544216678E-1,-7.049860443E0,-1.588372743E-1,7.060550705E0
4.874914292E0,5.772814219E-1,-7.072889117E0,-2.286610691E-1,7.100091562E0
4.884929292E0,1.013990517E0,-7.137406710E0,-4.601866892E-1,7.223747165E0
4.894944292E0,1.458501698E0,-7.063404933E0,-1.369184894E0,7.341224947E0
4.904959292E0,2.092267223E0,-6.426112221E0,-2.341411820E0,7.152252074E0
4.914973292E0,2.582305849E0,-5.033069810E0,-3.051315694E0,6.427334025E0
4.924988292E0,2.441252735E0,-3.028126806E0,-3.797317500E0,5.435888802E0
4.935003292E0,1.532179539E0,1.313617927E0,-3.641085745E0,4.163012323E0
4.945018292E0,4.937652022E-2,1.147055662E1,-3.522004859E0,1.199919270E1
4.955032292E0,-2.796504268E0,2.641921253E1,-2.580937600E0,2.669188014E1
4.965047292E0,-1.272116846E1,3.603326531E1,2.262315656E0,3.827979112E1
4.975062292E0,-1.181272983E1,3.473111845E1,6.953231696E0,3.733816554E1
4.985077292E0,-4.245002258E0,2.076219043E1,6.308173882E0,2.211066831E1
4.995091292E0,-5.819221523E0,1.310052763E1,2.573333881E0,1.456396960E1
5.005106292E0,-6.233632407E0,1.886620970E1,-5.097041273E-1,1.987591104E1
5.015121292E0,-5.659348122E0,2.281665876E1,-5.592813532E-1,2.351469613E1
5.025136292E0,-4.234019432E0,2.031428669E1,-5.114476208E-1,2.075713716E1
5.035150292E0,-2.944571264E0,1.625527589E1,-7.715330887E-1,1.653782807E1
5.045165292E0,-2.480013781E0,1.272613976E1,-3.428150909E-1,1.297006645E1
5.055180292E0,-2.063498337E0,9.736158437E0,-2.348146789E-1,9.955196856E0
5.065195292E0,-8.725636196E-1,7.119177430E0,-6.649430251E-1,7.203207881E0
5.075209292E0,4.034134412E-1,4.340196390E0,-1.198045224E0,4.520548581E0
5.085224292E0,1.157554425E0,1.146358908E0,-1.386764256E0,2.139435929E0
5.095239292E0,1.767349728E0,-1.535785224E0,-1.070457809E0,2.574498250E0
5.105254292E0,2.220166733E0,-3.967366226E0,-8.358322880E-1,4.622526442E0
5.115268292E0,2.326288581E0,-6.330204436E0,-7.856222472E-1,6.789720840E0
5.125283292E0,2.090235754E0,-8.637238575E0,-7.511043790E-1,8.918247221E0
5.135298292E0,1.742486929E0,-1.086071425E1,-4.308313277E-1,1.100804207E1
5.145313292E0,1.490696906E0,-1.300529870E1,8.849258029E-1,1.312033023E1
5.155327292E0,1.619213005E0,-1.521844527E1,3.275776269E0,1.565099477E1
5.165342292E0,2.240441076E0,-1.727988115E1,5.105591072E0,1.815711786E1
5.175357292E0,3.355215957E0,-1.869917346E1,5.443686436E0,1.976234511E1
5.185372292E0,4.488120421E0,-1.861250837E1,4.550413148E0,1.967930264E1
5.195386292E0,4.700557952E0,-1.698780571E1,3.446892697E0,1.796000716E1
5.205401292E0,3.986912591E0,-1.473928232E1,3.061890968E0,1.557296027E1
5.215416292E0,3.456028679E0,-1.285598069E1,3.583939152E0,1.378640612E1
5.225431292E0,3.030119537E0,-1.127724650E1,3.931966597E0,1.232145586E1
5.235445292E0,2.628276366E0,-9.821591520E0,3.881997170E0,1.088307855E1
5.245460292E0,2.221957589E0,-8.450318878E0,3.685646499E0,9.483088884E0
5.255475292E0,1.864727942E0,-7.209202332E0,3.373327707E0,8.174909686E0
5.265490292E0,1.597333893E0,-6.237147753E0,2.817740186E0,7.028025855E0
5.275504292E0,1.414959383E0,-5.402893921E0,2.085336080E0,5.961711109E0
5.285519292E0,1.351972738E0,-4.668946150E0,1.340317483E0,5.042156224E0
5.295534292E0,1.047612007E0,-4.342727650E0,7.398233458E-1,4.528146745E0
5.305549292E0,3.582542253E-1,-4.660374717E0,3.834925622E-2,4.674281683E0
5.315563292E0,-1.187872092E-1,-5.384255921E0,-5.290268362E-1,5.411487006E0
5.325578292E0,3.248800725E-2,-5.774638258E0,-7.896267128E-1,5.828465735E0
5.335593292E0,3.249537474E-1,-5.811570441E0,-1.096341533E0,5.922998454E0
5.345608292E0,7.626999924E-1,-5.132453181E0,-1.938726503E0,5.539173890E0
5.355622292E0,9.392565228E-1,-2.946880329E0,-3.825597851E0,4.919502557E0
5.365637292E0,2.110847774E-1,9.256943446E-1,-8.165334942E0,8.220350450E0
5.375652292E0,-9.452418789E-1,1.184107830E1,-9.450358815E0,1.517939061E1
5.385667292E0,-5.396799953E0,3.342737180E1,-1.731420489E-1,3.386066469E1
5.395681292E0,-1.131773730E1,4.284735784E1,8.113366059E0,4.505345669E1
5.405696292E0,-3.779498695E0,3.158198586E1,6.506153587E0,3.246592792E1
5.415711292E0,-3.936615719E0,1.495986502E1,1.261908514E0,1.552053214E1
5.425726292E0,-7.988315166E0,1.342563515E1,-2.101240068E0,1.576312369E1
5.435740292E0,-8.619705114E0,1.896267473E1,-2.863710119E0,2.102577430E1
5.445755292E0,-6.000923749E0,2.059552373E1,-1.679918798E0,2.151763953E1
5.455770292E0,-3.489871486E0,1.811094825E1,-7.255304119E-1,1.845838681E1
5.465785292E0,-2.115279671E0,1.456468680E1,-1.376352704E-1,1.471813348E1
5.475800292E0,-1.530187539E0,1.078409935E1,1.821514387E-1,1.089364273E1
5.485814292E0,-8.897336760E-1,7.154885207E0,-2.142171308E-2,7.210025466E0
5.495829292E0,-4.122696340E-1,4.043974691E0,-2.763256708E-1,4.074316314E0
5.505844292E0,-7.203301907E-2,7.554631859E-1,-5.490608588E-1,9.366862910E-1
5.515858292E0,5.371886721E-1,-1.797360417E0,-6.919548225E-1,1.999469333E0
5.525873292E0,7.046084896E-1,-4.181723982E0,-4.187416247E-1,4.261294772E0
5.535888875E0,9.056155908E-1,-6.376673428E0,-7.081293905E-1,6.479471494E0
5.545903875E0,1.054307654E0,-8.494836654E0,-6.667673564E-1,8.585941597E0
5.555917875E0,1.694138349E0,-1.023578255E1,-2.726115194E-1,1.037861581E1
5.565932875E0,1.914131067E0,-1.179390414E1,1.012989181E0,1.199108918E1
5.575947875E0,1.731875110E0,-1.313392458E1,2.987900301E0,1.358038713E1
5.585962875E0,1.777442461E0,-1.442102772E1,4.861710431E0,1.532193104E1
5.595976875E0,2.247226770E0,-1.553266294E1,5.486691538E0,1.662580615E1
5.605991875E0,2.953582115E0,-1.607625753E1,4.852178593E0,1.705031790E1
5.616006875E0,3.528791138E0,-1.540462178E1,3.717600655E0,1.623500212E1
5.626021875E0,3.809636706E0,-1.411674798E1,2.865380668E0,1.489987623E1
5.636035875E0,3.831527512E0,-1.299159049E1,2.726233015E0,1.381645298E1
5.646050875E0,3.938302056E0,-1.178069996E1,2.958657206E0,1.276905505E1
5.656065875E0,4.055278528E0,-1.069953224E1,3.202883417E0,1.188207626E1
5.666080875E0,3.773145403E0,-9.898614553E0,3.349255305E0,1.111020735E1
5.676094875E0,3.333163475E0,-9.215284958E0,3.209248404E0,1.031167935E1
5.686109875E0,2.808125317E0,-8.491421295E0,2.999166716E0,9.433175733E0
5.696124875E0,2.293877611E0,-7.741321760E0,2.478499060E0,8.445880338E0
5.706139875E0,1.956014381E0,-7.144418691E0,1.704818873E0,7.600994545E0
5.716153875E0,1.800426697E0,-6.665929924E0,1.240544396E0,7.015348063E0
5.726168875E0,1.545037712E0,-6.259015170E0,1.023719114E0,6.527665223E0
5.736183875E0,1.218470133E0,-5.862823625E0,7.713828152E-1,6.037582444E0
5.746198875E0,7.424259415E-1,-5.570684452E0,2.579244831E-1,5.625855187E0
5.756212875E0,4.401298624E-1,-5.272801559E0,-7.422110564E-1,5.342941870E0
5.766227875E0,4.402330658E-1,-4.807220521E0,-2.493234043E0,5.433174973E0
5.776242875E0,4.235608998E-1,-3.925513026E0,-5.608890159E0,6.859205870E0
5.786257875E0,8.251779301E-1,-7.823171085E-1,-9.055274148E0,9.126386392E0
5.796272875E0,1.703407209E0,9.492621320E0,-9.230929184E0,1.334996289E1
5.806286875E0,-1.291379504E0,2.743122055E1,-1.179620648E0,2.748692465E1
5.816301875E0,-8.107948029E0,3.671143474E1,8.489156084E0,3.854262618E1
5.826316875E0,-4.710748479E0,2.984011669E1,8.089262667E0,3.127394900E1
5.836330875E0,-5.880084021E0,1.562523372E1,4.238360113E0,1.722460488E1
5.846345875E0,-1.134399481E1,1.489210047E1,1.717744728E0,1.879924258E1
5.856360875E0,-1.277355717E1,2.125740749E1,8.893568230E-1,2.481596445E1
5.866375875E0,-1.147927014E1,2.221647716E1,9.881256509E-1,2.502642389E1
5.876389875E0,-8.414162035E0,1.881165284E1,1.376482512E0,2.065359798E1
5.886404875E0,-5.103299548E0,1.533342726E1,9.166506024E-1,1.618634937E1
5.896419875E0,-2.475091302E0,1.250442738E1,-4.055264787E-1,1.275347924E1
5.906434875E0,-5.223325051E-1,1.048575336E1,-1.014761034E0,1.054768196E1
5.916449875E0,7.336383073E-1,7.962019068E0,-1.001622194E0,8.058239251E0
5.926463875E0,1.631734964E0,4.776396339E0,-1.370825477E0,5.230266099E0
5.936478875E0,2.381946034E0,1.523694352E0,-1.770831892E0,3.336338858E0
5.946493875E0,2.915506801E0,-1.007599218E0,-1.907436152E0,3.626809723E0
5.956508875E0,3.063900071E0,-3.238717786E0,-1.650884156E0,4.754176589E0
5.966522875E0,3.124036930E0,-5.573311021E0,-1.384265741E0,6.537399645E0
5.976537875E0,3.404939801E0,-7.562080042E0,-1.105742394E0,8.366680098E0
5.986552875E0,3.257689370E0,-9.420919254E0,-5.229492402E-1,9.981970523E0
5.996566875E0,2.728647623E0,-1.072999857E1,6.274465853E-1,1.108927754E1
6.006581875E0,2.012339147E0,-1.205832926E1,2.236011811E0,1.242789452E1
6.016596875E0,1.572648265E0,-1.363966196E1,3.540803073E0,1.417924142E1
6.026611875E0,1.618112998E0,-1.532363434E1,4.240101998E0,1.598156826E1
6.036625875E0,2.016697808E0,-1.648958317E1,4.589883316E0,1.723486153E1
6.046640875E0,2.538769820E0,-1.643376916E1,4.469392959E0,1.721887320E1
6.056655875E0,2.504268031E0,-1.499788595E1,3.946869104E0,1.570941492E1
6.066670875E0,2.101674955E0,-1.318168464E1,3.634788879E0,1.383421620E1
6.076684875E0,2.024248756E0,-1.181741228E1,3.604173442E0,1.251954002E1
6.086699875E0,2.166226607E0,-1.075240861E1,3.534820494E0,1.152396566E1
6.096714875E0,2.248790462E0,-1.003229711E1,3.378039393E0,1.082197736E1
6.106729875E0,2.271311598E0,-9.299248052E0,3.097938760E0,1.006141617E1
6.116743875E0,2.143140192E0,-8.447364864E0,2.652418934E0,9.109684365E0
6.126758875E0,1.853635628E0,-7.565286071E0,2.043687240E0,8.052712332E0
6.136773875E0,1.554965700E0,-6.775958735E0,1.437083201E0,7.099066364E0
6.146788875E0,1.169186438E0,-6.148848365E0,9.074118555E-1,6.324454871E0
6.156802875E0,8.752869603E-1,-5.628360218E0,2.255414334E-1,5.700476729E0
6.166817875E0,5.720105955E-1,-5.107515391E0,-1.267195420E-1,5.141008406E0
6.176832875E0,6.979191287E-1,-5.016628025E0,-2.730788581E-1,5.072299273E0
6.186847875E0,1.067017746E0,-5.645249316E0,-4.773260477E-1,5.764998427E0
6.196861875E0,1.163809338E0,-6.104615933E0,-7.353040329E-1,6.257911783E0
6.206876875E0,6.428456663E-1,-5.126567958E0,-2.005978839E0,5.542463413E0
6.216891875E0,-4.422942093E-1,-2.337367154E0,-4.650121039E0,5.223268618E0
6.226906875E0,-2.209936591E0,2.934298875E0,-9.342985225E0,1.003918834E1
6.236920875E0,-2.952759412E0,1.591270740E1,-1.122033321E1,1.969337255E1
6.246935875E0,-7.764841601E0,3.478596768E1,-1.266256649E0,3.566454427E1
6.256950875E0,-8.445897798E0,4.200879694E1,7.044125494E0,4.342455428E1
6.266965875E0,8.235940656E-1,2.971622588E1,6.313118287E0,3.039058819E1
6.276979875E0,-3.725506968E0,1.290337355E1,4.094260453E0,1.404063459E1
6.286994875E0,-7.317067088E0,1.431686075E1,1.896798166E0,1.618980592E1
6.297009875E0,-8.552442838E0,1.883409562E1,6.315482609E-1,2.069459566E1
6.307024875E0,-9.231140853E0,1.887339593E1,-6.404386599E-1,2.101973352E1
6.317038875E0,-7.273151575E0,1.743614214E1,-1.372094615E0,1.894202814E1
6.327053875E0,-4.829325920E0,1.491869828E1,-6.569744396E-1,1.569463484E1
6.337068875E0,-1.782025509E0,1.177304127E1,-3.464169757E-1,1.191218370E1
6.347083875E0,4.229630220E-1,8.491294411E0,-4.049683620E-1,8.511461559E0
6.357097875E0,1.668810550E0,5.585792488E0,-2.576423550E-1,5.835442224E0
6.367112875E0,2.115613986E0,2.147720901E0,-1.757041526E-1,3.019834359E0
6.377127875E0,2.338404889E0,-9.620172483E-1,-2.898406327E-1,2.545117326E0
6.387142875E0,2.474105169E0,-3.253705954E0,-8.534917563E-2,4.088408407E0
6.397156875E0,2.378902120E0,-5.053220485E0,1.183736649E-1,5.586432215E0
6.407171875E0,2.110402801E0,-6.517622901E0,-2.962377790E-1,6.857183465E0
6.417186875E0,1.899849536E0,-8.006215832E0,-3.065470049E-1,8.234251106E0
6.427201875E0,1.700477170E0,-9.839438392E0,2.893003500E-1,9.989487733E0
6.437215875E0,1.733687162E0,-1.198090745E1,9.624169055E-1,1.214388985E1
6.447230875E0,1.912315361E0,-1.418170820E1,2.125188363E0,1.446700464E1
6.457245875E0,2.213186766E0,-1.628067970E1,3.689716161E0,1.683961794E1
6.467260875E0,2.672868402E0,-1.786275499E1,5.222718987E0,1.880157001E1
6.477274875E0,3.150824195E0,-1.815879016E1,6.026424041E0,1.939038783E1
6.487289875E0,3.476584565E0,-1.623158998E1,5.784123026E0,1.757860156E1
6.497304875E0,3.462588962E0,-1.378794735E1,4.845037973E0,1.501903483E1
6.507319875E0,2.975381997E0,-1.235183727E1,4.313758497E0,1.341749956E1
6.517333875E0,2.567735464E0,-1.104053016E1,3.953717947E0,1.200493471E1
6.527348875E0,2.204027102E0,-9.848598640E0,3.600702535E0,1.071530165E1
6.537363500E0,1.888770231E0,-8.862993139E0,3.323142517E0,9.652117724E0
6.547378500E0,1.680876279E0,-7.876742690E0,3.109290545E0,8.633429687E0
6.557392500E0,1.453104133E0,-6.998398513E0,2.826113691E0,7.686092113E0
6.567407500E0,1.156095253E0,-6.192058119E0,2.275134946E0,6.697341189E0
6.577422500E0,9.087806886E-1,-5.471632619E0,1.579136189E0,5.767002424E0
6.587437500E0,5.610991064E-1,-5.199962794E0,9.597514522E-1,5.317477608E0
6.597451500E0,2.272957443E-1,-5.244902154E0,1.905133957E-1,5.253280624E0
6.607466500E0,6.094026625E-2,-5.268873984E0,-4.344156709E-1,5.287103531E0
6.617481500E0,4.833001480E-1,-4.977559853E0,-1.206828766E0,5.144522990E0
6.627496500E0,1.243052705E0,-4.709693642E0,-2.104321989E0,5.306087566E0
6.637510500E0,2.061290283E0,-4.228023405E0,-3.356898201E0,5.778742516E0
6.647525500E0,2.727524373E0,-2.934391261E0,-4.923154435E0,6.347242777E0
6.657540500E0,2.594822691E0,6.922460139E-1,-6.281188397E0,6.831225148E0
6.667555500E0,1.584145352E0,1.072741410E1,-4.260918379E0,1.165085213E1
6.677569500E0,-5.310428392E0,2.560211793E1,2.783286345E0,2.629478609E1
6.687584500E0,-1.520922421E1,3.334548271E1,6.635145503E0,3.724603166E1
6.697599500E0,-8.456653166E0,2.965116041E1,2.316960518E0,3.092045605E1
6.707614500E0,-5.589572128E0,1.942288100E1,-1.165946496E-1,2.021151200E1
6.717628500E0,-6.910607833E0,1.978578026E1,-5.662816398E-1,2.096554974E1
6.727643500E0,-6.213207498E0,2.326637046E1,-6.544086814E-1,2.409058307E1
6.737658500E0,-4.857532888E0,2.264047982E1,6.170497973E-1,2.316393107E1
6.747673500E0,-4.714019997E0,1.872675829E1,2.019760580E0,1.941630483E1
6.757687500E0,-4.798039223E0,1.439058244E1,1.588454897E0,1.525231892E1
6.767702500E0,-4.304212040E0,1.066201650E1,7.637428433E-2,1.149828988E1
6.777717500E0,-3.501862956E0,7.442067695E0,-1.292754769E0,8.325781083E0
6.787732500E0,-2.565198357E0,4.566684780E0,-2.234914581E0,5.694707690E0
6.797746500E0,-9.999992993E-1,2.042717772E0,-2.694423870E0,3.525991277E0
6.807761500E0,5.764335756E-1,-1.856847650E-1,-2.573102039E0,2.643408520E0
6.817776500E0,1.261541601E0,-2.687383822E0,-1.963259666E0,3.559200407E0
6.827791500E0,1.775391843E0,-5.076633906E0,-1.605459477E0,5.612640033E0
6.837805500E0,2.287026721E0,-7.156078624E0,-1.310247007E0,7.626054006E0
6.847820500E0,2.669950349E0,-9.223605546E0,-5.305509129E-1,9.616913144E0
6.857835500E0,2.818561135E0,-1.111800928E1,4.457028437E-1,1.147837394E1
6.867849500E0,2.940834601E0,-1.234717821E1,1.382739033E0,1.276766561E1
6.877864500E0,2.803828491E0,-1.327194460E1,2.571695491E0,1.380650518E1
6.887879500E0,2.620160138E0,-1.450896751E1,4.129118045E0,1.531094358E1
6.897894500E0,2.593389538E0,-1.577183043E1,5.168372626E0,1.679846363E1
6.907908500E0,2.963092904E0,-1.616745538E1,5.529378551E0,1.734187303E1
6.917923500E0,3.433333004E0,-1.505456535E1,5.260033579E0,1.631243902E1
6.927938500E0,3.305936208E0,-1.359693752E1,4.770885046E0,1.478402071E1
6.937953500E0,3.104347601E0,-1.246411901E1,4.389084083E0,1.357406703E1
6.947967500E0,3.281728735E0,-1.127628522E1,4.083598348E0,1.243382995E1
6.957982500E0,3.436096982E0,-1.029470026E1,3.762268705E0,1.148661316E1
6.967997500E0,3.478984263E0,-9.434959588E0,3.326904323E0,1.059198217E1
6.978012500E0,3.211979638E0,-8.559368280E0,2.866324116E0,9.580992250E0
6.988026500E0,2.792331988E0,-7.671536996E0,2.420630628E0,8.515224627E0
6.998041500E0,2.473069920E0,-6.915030082E0,1.976288724E0,7.605224059E0
7.008056500E0,2.211898917E0,-6.370018712E0,1.566848558E0,6.922763149E0
7.018071500E0,1.857109897E0,-5.945668146E0,1.332659677E0,6.369914339E0
7.028085500E0,1.412293199E0,-5.488711751E0,9.856055009E-1,5.752560036E0
7.038100500E0,1.191251637E0,-5.025478370E0,3.916935745E-1,5.179569207E0
7.048115500E0,1.166240610E0,-4.900662535E0,-4.096477425E-1,5.054148961E0
7.058130500E0,1.289472727E0,-5.120786231E0,-1.533650114E0,5.498842988E0
7.068144500E0,1.528200509E0,-5.078738903E0,-2.707928891E0,5.954986526E0
7.078159500E0,1.620155869E0,-3.701464679E0,-4.659999618E0,6.167766390E0
7.088174500E0,1.402492535E0,2.606220961E-2,-6.986440372E0,7.125869324E0
7.098189500E0,8.399251927E-1,1.034807716E1,-7.772738850E0,1.296933477E1
7.108203500E0,-4.652561959E0,2.629847922E1,-1.824077222E0,2.676907917E1
7.118218500E0,-1.524580673E1,3.516377265E1,6.659585695E0,3.890084333E1
7.128233500E0,-1.177691681E1,3.261512338E1,5.614322222E0,3.512780461E1
7.138248500E0,-9.724197958E0,1.827265650E1,4.165603209E0,2.111402974E1
7.148262500E0,-1.094335412E1,1.673354538E1,3.082171158E0,2.023038110E1
7.158277500E0,-8.154637461E0,2.190285122E1,1.142891217E0,2.339955564E1
7.168292500E0,-5.882646856E0,2.430539027E1,2.053019396E0,2.509128173E1
7.178307500E0,-5.293646883E0,2.191486608E1,2.476446979E0,2.268075930E1
7.188321500E0,-5.156478805E0,1.731553045E1,1.494851353E0,1.812874648E1
7.198336500E0,-4.036855414E0,1.301436539E1,1.073303795E0,1.366828041E1
7.208351500E0,-2.117806399E0,8.549676520E0,2.917013629E-1,8.812897493E0
7.218366500E0,-2.089799260E-1,5.225793453E0,-1.504071681E0,5.441950151E0
7.228380500E0,1.309991922E0,3.056519131E0,-2.560223546E0,4.196800286E0
7.238395500E0,1.294016744E0,2.227590358E-1,-2.504646346E0,2.827959378E0
7.248410500E0,2.735662235E-1,-2.722016881E0,-1.840093330E0,3.296992242E0
7.258425500E0,-1.023158951E-1,-4.947075394E0,-1.750151167E0,5.248528614E0
7.268439500E0,3.505418940E-1,-7.051045089E0,-2.088019367E0,7.362060944E0
7.278454500E0,1.072442062E0,-9.381432422E0,-1.891163204E0,9.630052156E0
7.288469500E0,1.828951315E0,-1.143623697E1,-1.072273808E0,1.163109411E1
7.298483500E0,2.412700780E0,-1.298872652E1,2.036538434E-1,1.321247958E1
7.308498500E0,2.972698710E0,-1.446858196E1,1.700476146E0,1.486836981E1
7.318513500E0,3.286146891E0,-1.605267922E1,3.028514476E0,1.666310810E1
7.328528500E0,3.619227099E0,-1.721998929E1,4.195515517E0,1.808947722E1
7.338542500E0,4.455707551E0,-1.691746838E1,5.206032203E0,1.825258441E1
7.348557500E0,5.407777516E0,-1.502050766E1,5.630619582E0,1.692818906E1
7.358572500E0,5.202460724E0,-1.307730248E1,5.415664240E0,1.508014778E1
7.368587500E0,4.440898892E0,-1.147660849E1,5.088058780E0,1.331624825E1
7.378601500E0,3.841925324E0,-1.023066273E1,4.801993403E0,1.193674959E1
7.388616500E0,3.165785465E0,-9.370714476E0,4.383425440E0,1.081882184E1
7.398631500E0,2.458673198E0,-8.532117916E0,3.902813550E0,9.699178503E0
7.408646500E0,1.908839630E0,-7.580337973E0,3.258598319E0,8.468981965E0
7.418660500E0,1.344107940E0,-6.622864596E0,2.361729871E0,7.158682113E0
7.428675500E0,7.615790811E-1,-5.971866596E0,1.246494230E0,6.147921698E0
7.438690500E0,2.914975874E-1,-5.813307649E0,1.792481500E-1,5.823370722E0
7.448705500E0,-9.173024207E-2,-6.226706380E0,-5.858538786E-1,6.254879020E0
7.458719500E0,-1.126656130E-2,-6.537312815E0,-6.934426466E-1,6.573997907E0
7.468734500E0,3.912344219E-1,-6.792579446E0,-4.848256865E-1,6.821089051E0
7.478749500E0,5.498524256E-1,-7.511909763E0,-6.660414246E-1,7.561397830E0
7.488764500E0,9.774271466E-1,-8.140504741E0,-1.293133084E0,8.300323755E0
7.498778500E0,1.937152286E0,-7.732902939E0,-2.096357789E0,8.242879523E0
7.508793500E0,2.022920707E0,-6.512752170E0,-3.202765888E0,7.534312069E0
7.518808500E0,1.017375909E0,-4.367378342E0,-5.270053368E0,6.919718912E0
7.528823500E0,-7.714345631E-1,8.837236154E-1,-8.070550407E0,8.155357907E0
7.538837500E0,-1.934681107E0,1.295316610E1,-6.329677602E0,1.454621330E1
7.548852500E0,-3.841699036E0,3.085679546E1,4.437180940E0,3.141001516E1
7.558867500E0,-1.008840816E1,3.592276463E1,1.333427241E1,3.962352608E1
7.568881500E0,-5.531715683E0,3.016204099E1,9.115418608E0,3.199124023E1
7.578896500E0,-6.697470975E0,1.674530998E1,3.298324302E0,1.833413393E1
7.588911500E0,-1.009790287E1,1.513165388E1,-1.901499181E0,1.829071596E1
7.598926500E0,-8.740498649E0,2.058401407E1,-4.671519510E0,2.284559140E1
7.608940500E0,-6.575334334E0,2.184382943E1,-6.228457037E-1,2.282051363E1
7.618955500E0,-5.264340638E0,1.877220051E1,1.759015838E0,1.957556975E1
7.628970500E0,-3.910101519E0,1.537064361E1,8.883983181E-1,1.588505054E1
7.638985500E0,-3.214131998E0,1.194662405E1,-6.974145140E-1,1.239107977E1
7.648999500E0,-2.450690871E0,8.744853070E0,-1.777642436E0,9.254099286E0
7.659014500E0,-1.231387364E0,5.452561340E0,-2.550742579E0,6.144349250E0
7.669029500E0,1.947526270E-1,2.122561501E0,-2.971732750E0,3.657101509E0
7.679044500E0,1.499392593E0,-8.564983946E-1,-2.754379465E0,3.250903549E0
7.689058500E0,2.289947551E0,-3.468416297E0,-2.226417699E0,4.714945087E0
7.699073500E0,2.489960187E0,-5.706043401E0,-1.856812567E0,6.496659598E0
7.709088500E0,2.242288943E0,-7.654561359E0,-1.356588822E0,8.090766499E0
7.719103500E0,2.080900528E0,-9.196728235E0,-2.582261994E-1,9.432742868E0
7.729117500E0,2.125830387E0,-1.016016870E1,9.153819028E-1,1.042046577E1
7.739132500E0,2.098125695E0,-1.086279819E1,2.038405158E0,1.124978274E1
7.749147500E0,1.945378588E0,-1.191382351E1,3.118410155E0,1.246788557E1
7.759162500E0,2.107132015E0,-1.320525009E1,3.942542749E0,1.394138725E1
7.769176500E0,2.811514363E0,-1.441542960E1,4.318779501E0,1.530885626E1
7.779191500E0,3.390172951E0,-1.521241328E1,4.450411435E0,1.620854566E1
7.789206500E0,3.570717428E0,-1.483968953E1,4.545399453E0,1.592567313E1
7.799221500E0,3.783037430E0,-1.304277117E1,4.684821048E0,1.436568133E1
7.809235500E0,3.556582954E0,-1.141675405E1,4.582800584E0,1.280599924E1
7.819250500E0,3.384609325E0,-1.049865465E1,4.426244016E0,1.188566220E1
7.829265500E0,3.380528261E0,-9.871346648E0,4.228847862E0,1.125853499E1
7.839279500E0,3.110975420E0,-9.217459538E0,3.660129834E0,1.039405016E1
7.849294500E0,2.744630402E0,-8.450970258E0,2.595509446E0,9.256811742E0
7.859309500E0,2.427764524E0,-7.664609799E0,1.359189079E0,8.153997726E0
7.869324500E0,2.038773532E0,-7.122236109E0,1.647675204E-1,7.410127734E0
7.879338500E0,1.509236673E0,-7.079537986E0,-6.556029752E-1,7.268250731E0
7.889353500E0,1.086663806E0,-7.219286440E0,-1.012347449E0,7.370466898E0
7.899368500E0,1.328536513E0,-7.454829243E0,-8.479114661E-1,7.619609056E0
7.909383500E0,2.399457276E0,-7.540475165E0,-3.751596951E-1,7.921925633E0
7.919397500E0,3.369347507E0,-6.970409061E0,-4.482621700E-2,7.742164716E0
7.929412500E0,3.400628942E0,-5.508977031E0,6.149370521E-2,6.474325185E0
7.939427500E0,2.865207006E0,-2.954766469E0,3.980844350E-1,4.135036552E0
7.949442500E0,1.306675966E0,-2.262872458E-3,1.056439841E0,1.680319118E0
7.959456500E0,-2.133110902E0,2.856274799E0,2.439239100E-2,3.564977256E0
7.969471500E0,-6.332587177E0,7.816270201E0,-7.998258941E0,1.285176588E1
7.979486500E0,-1.087313490E1,2.149135927E1,-1.361154270E1,2.766546006E1
7.989501500E0,-1.343906855E1,3.897922120E1,6.378726386E0,4.172141415E1
7.999515500E0,-2.139925831E0,4.031253839E1,1.335685436E1,4.252158972E1
8.009530500E0,-2.504183247E0,1.673002185E1,8.144141124E0,1.877475964E1
8.019545500E0,-1.120217293E1,7.961590467E0,5.016818644E0,1.463024506E1
8.029560500E0,-1.331276284E1,1.585556490E1,-8.458452062E-1,2.072061888E1
8.039574500E0,-1.149339117E1,1.912629853E1,-4.656150688E0,2.279458434E1
8.049589500E0,-6.030472069E0,1.807617719E1,-2.073269327E0,1.916802601E1
8.059604500E0,-1.715624966E0,1.469509725E1,6.854891177E-1,1.481077808E1
8.069618500E0,1.191865448E0,1.076898313E1,1.086994905E0,1.088912755E1
8.079633500E0,1.618172493E0,6.753148747E0,-9.620166636E-1,7.010633087E0
8.089648500E0,1.652779239E0,3.771805514E0,-2.458699803E0,4.796186064E0
8.099663500E0,2.546231452E0,2.363080285E0,-3.258660007E0,4.763014600E0
8.109677500E0,3.324134497E0,8.572462535E-1,-3.646819525E0,5.008396344E0
8.119692500E0,3.906192656E0,-1.083315398E0,-3.547978191E0,5.387027247E0
8.129707500E0,4.348488034E0,-2.970675573E0,-3.217430997E0,6.171395610E0
8.139722500E0,4.083674654E0,-5.165775878E0,-2.895080138E0,7.193269640E0
8.149736500E0,3.315054648E0,-7.213770761E0,-1.980924689E0,8.182428646E0
8.159751500E0,2.489209697E0,-9.037857047E0,-4.490193844E-1,9.385128839E0
8.169766500E0,2.098959069E0,-1.098944187E1,1.131458448E0,1.124516163E1
8.179781500E0,1.921598693E0,-1.274987712E1,2.953568082E0,1.322782947E1
8.189795500E0,1.785319392E0,-1.415199616E1,4.468216791E0,1.494761928E1
8.199810500E0,1.730517679E0,-1.529679094E1,4.728226099E0,1.610411831E1
8.209825500E0,2.088407038E0,-1.564656319E1,4.257722875E0,1.634945222E1
8.219840500E0,2.519490380E0,-1.507708883E1,3.857640008E0,1.576539964E1
8.229854500E0,2.504475315E0,-1.391581660E1,3.803997359E0,1.464215640E1
8.239869500E0,2.295759683E0,-1.261687869E1,4.137073766E0,1.347484767E1
8.249884500E0,2.215621693E0,-1.127060640E1,4.402589689E0,1.230115215E1
8.259899500E0,2.075398152E0,-1.006016026E1,4.254402826E0,1.111818534E1
8.269913500E0,1.786372621E0,-9.434284235E0,3.747405083E0,1.030727369E1
8.279928500E0,1.488503469E0,-9.167122028E0,3.003622295E0,9.760815322E0
8.289943500E0,1.120311170E0,-8.807815304E0,2.007883861E0,9.102983310E0
8.299957500E0,7.205982855E-1,-8.099601129E0,7.872916272E-1,8.169616175E0
8.309972500E0,3.237490748E-1,-7.433830138E0,-3.616505805E-1,7.449660068E0
8.319987500E0,-3.841880885E-1,-7.054045880E0,-1.175349695E0,7.161606710E0
8.330002500E0,-7.339473327E-1,-6.691416183E0,-1.800133459E0,6.968085081E0
8.340016500E0,1.974449775E-1,-5.986859441E0,-2.496727462E0,6.489616207E0
8.350031500E0,1.683314568E0,-4.985136675E0,-3.199008760E0,6.157823695E0
8.360046500E0,3.080048912E0,-3.028165982E0,-2.591534217E0,5.037116249E0
8.370061500E0,3.186043729E0,6.125256604E-1,-1.229334991E0,3.469485098E0
8.380075500E0,2.354207282E0,7.668443819E0,-3.056984277E-1,8.027501109E0
8.390090500E0,7.410973080E-1,1.636150810E1,1.749395560E0,1.647144673E1
8.400105500E0,-5.929590642E0,2.195036102E1,4.980936620E0,2.327634258E1
8.410120500E0,-1.418397225E1,2.373799284E1,4.266564742E0,2.798000978E1
8.420134500E0,-1.221913237E1,2.118502832E1,9.822434981E-1,2.447605816E1
8.430149500E0,-6.463410441E0,1.761933190E1,-1.124650535E-1,1.876776970E1
8.440164500E0,-4.435156927E0,1.900855666E1,2.638149682E-1,1.952089756E1
8.450179500E0,-4.905562502E0,2.268849247E1,9.144343615E-2,2.321294027E1
8.460193500E0,-4.894574414E0,2.255616998E1,6.231683238E-1,2.308952147E1
8.470208500E0,-5.416655928E0,1.850546807E1,1.285282174E0,1.932471113E1
8.480223500E0,-6.048765668E0,1.513386646E1,9.423220718E-1,1.632511718E1
8.490238500E0,-5.469055166E0,1.281733177E1,-1.974302132E-1,1.393676924E1
8.500252500E0,-4.529945847E0,1.038368436E1,-8.978901033E-1,1.136430891E1
8.510267500E0,-3.146840487E0,7.559621288E0,-1.236529405E0,8.281273093E0
8.520282500E0,-1.235664163E0,4.261080639E0,-1.465544962E0,4.672418664E0
8.530296500E0,1.035745521E0,1.098319938E0,-1.710007400E0,2.281052560E0
8.540312042E0,2.699480542E0,-1.601894429E0,-1.978670295E0,3.710579078E0
8.550327042E0,3.408106361E0,-3.676894678E0,-1.822905148E0,5.334578392E0
8.560342042E0,3.275312585E0,-5.608700709E0,-8.785257331E-1,6.554159263E0
8.570356042E0,2.966679001E0,-7.851796129E0,-4.324147537E-1,8.404693288E0
8.580371042E0,3.231970392E0,-9.647686556E0,-2.694703951E-1,1.017821707E1
8.590386042E0,3.784525546E0,-1.098108620E1,3.747211540E-1,1.162098549E1
8.600401042E0,3.663470641E0,-1.251296197E1,2.269163184E0,1.323421082E1
8.610415042E0,3.420119466E0,-1.457376752E1,4.034957407E0,1.550396073E1
8.620430042E0,3.567461114E0,-1.650742420E1,4.685201702E0,1.752635009E1
8.630445042E0,3.447620967E0,-1.772960921E1,4.733001813E0,1.867154089E1
8.640460042E0,2.957225808E0,-1.728424551E1,4.169756778E0,1.802435016E1
8.650474042E0,2.741886304E0,-1.511711302E1,3.321828940E0,1.571876567E1
8.660489042E0,2.624836741E0,-1.297947857E1,2.825500318E0,1.354031328E1
8.670504042E0,2.443849191E0,-1.125532529E1,2.594246155E0,1.180613651E1
8.680519042E0,1.991128957E0,-9.929112461E0,2.535032279E0,1.043926518E1
8.690533042E0,1.700453927E0,-8.784204247E0,2.546518550E0,9.302609555E0
8.700548042E0,1.711885526E0,-7.842903684E0,2.612542385E0,8.441982466E0
8.710563042E0,1.762300804E0,-7.085925484E0,2.593598284E0,7.748728680E0
8.720577042E0,1.730762092E0,-6.424268010E0,2.345305627E0,7.054588249E0
8.730592042E0,1.664304539E0,-5.902711576E0,1.757289448E0,6.379653576E0
8.740607042E0,1.602227282E0,-5.614453200E0,8.616562235E-1,5.901836023E0
8.750622042E0,1.278041128E0,-5.876138905E0,-1.045376909E-1,6.014426463E0
8.760636042E0,1.013991686E0,-6.315784618E0,-1.019518475E0,6.477401670E0
8.770651042E0,1.314361693E0,-6.466224706E0,-1.593339368E0,6.788102750E0
8.780666042E0,1.824688256E0,-6.299332307E0,-2.179538232E0,6.910966767E0
8.790681042E0,2.040140319E0,-6.265209126E0,-2.703710418E0,7.122153321E0
8.800695042E0,1.885681732E0,-5.814149648E0,-3.575596930E0,7.081315212E0
8.810710042E0,1.832193450E0,-3.216562101E0,-4.934772853E0,6.168888692E0
8.820725042E0,1.113660108E0,2.310540129E0,-6.804561560E0,7.271924955E0
8.830740042E0,7.918590336E-1,1.383506187E1,-5.288020692E0,1.483236800E1
8.840754042E0,-1.656296047E0,2.821940650E1,1.616503844E0,2.831415379E1
8.850769042E0,-1.049756006E1,3.452984326E1,7.937239738E0,3.695278903E1
8.860784042E0,-1.018614437E1,3.069305705E1,6.588585294E0,3.300349594E1
8.870799042E0,-9.503600053E0,1.690812453E1,2.870754844E0,1.960725178E1
8.880813042E0,-9.713370668E0,1.441381694E1,-2.758646178E-1,1.738343435E1
8.890828042E0,-9.174394210E0,1.839230457E1,-1.553834264E0,2.061215121E1
8.900843042E0,-6.996102312E0,2.218789597E1,-7.647047102E-1,2.327730544E1
8.910857042E0,-2.779387422E0,2.150768703E1,6.351106770E-1,2.169582821E1
8.920872042E0,-1.722011295E0,1.660875060E1,1.229723100E0,1.674300266E1
8.930887042E0,-1.631234442E0,1.205525714E1,1.533285247E0,1.226136673E1
8.940902042E0,-1.502091960E0,8.278647550E0,8.768388113E-1,8.459381290E0
8.950916042E0,-1.179619040E0,4.889978503E0,-3.542206697E-1,5.042703949E0
8.960931042E0,-1.082628350E0,1.518099736E0,-1.481080867E0,2.381241586E0
8.970946042E0,-7.893109632E-1,-1.683062553E0,-1.922850874E0,2.674521796E0
8.980961042E0,-7.880511805E-2,-4.195106505E0,-1.921934469E0,4.615079732E0
8.990975042E0,1.008210983E0,-6.273140289E0,-2.368302141E0,6.780680903E0
9.000990042E0,2.127074821E0,-8.180028411E0,-2.668898435E0,8.863426592E0
9.011005042E0,2.459725989E0,-1.013303411E1,-2.467000218E0,1.071516319E1
9.021020042E0,2.573926204E0,-1.198877546E1,-1.838818053E0,1.239907598E1
9.031034042E0,2.761195564E0,-1.362107483E1,-3.408134428E-1,1.390230320E1
9.041049042E0,3.004912190E0,-1.505559797E1,1.937200380E0,1.547427778E1
9.051064042E0,3.411071484E0,-1.609801619E1,4.372725328E0,1.702651640E1
9.061078042E0,3.767035940E0,-1.671733690E1,5.734032269E0,1.807039122E1
9.071093042E0,3.701810249E0,-1.629808452E1,5.554342654E0,1.761197549E1
9.081108042E0,3.519247897E0,-1.474556690E1,4.451924987E0,1.579988877E1
9.091123042E0,3.013778324E0,-1.343094209E1,3.781703388E0,1.427495519E1
9.101137042E0,2.687044684E0,-1.228506324E1,3.551591478E0,1.306739415E1
9.111152042E0,2.609724612E0,-1.119790914E1,3.186395146E0,1.193134300E1
9.121167042E0,2.707319904E0,-1.028212758E1,2.855490395E0,1.100933940E1
9.131182042E0,2.848809951E0,-9.473469350E0,2.658742990E0,1.024359575E1
9.141196042E0,2.726139752E0,-8.718554633E0,2.423513013E0,9.450843781E0
9.151211042E0,2.432464223E0,-7.990471619E0,2.025064297E0,8.594498490E0
9.161226042E0,2.102437139E0,-7.247555974E0,1.601996756E0,7.714512500E0
9.171241042E0,1.673960193E0,-6.539266369E0,1.375358677E0,6.888814039E0
9.181255042E0,1.154775098E0,-5.939213989E0,1.215993107E0,6.171418603E0
9.191270042E0,6.617210631E-1,-5.476606845E0,7.971099794E-1,5.573731391E0
9.201285042E0,2.622157547E-1,-5.096991572E0,-6.244694754E-2,5.104114008E0
9.211300042E0,-2.397329181E-2,-4.757085325E0,-1.463466569E0,4.977164846E0
9.221314042E0,-2.364976537E-1,-4.316817468E0,-3.096508824E0,5.317820144E0
9.231329042E0,-3.894856659E-1,-3.354315485E0,-5.085674286E0,6.104687904E0
9.241344042E0,-1.900257379E-1,-8.863332278E-1,-7.166072685E0,7.223177562E0
9.251359042E0,5.558199477E-1,5.159787744E0,-9.522402359E0,1.084474491E1
9.261373042E0,-1.180853679E0,1.800597786E1,-4.535991576E0,1.860604401E1
9.271388042E0,-6.374309399E0,3.110961036E1,7.759276221E0,3.269015210E1
9.281403042E0,-5.071580157E0,3.482017389E1,1.020255984E1,3.663683477E1
9.291417042E0,-2.648406867E0,2.453178745E1,6.719212092E0,2.557284625E1
9.301432042E0,-6.503093154E0,1.538473073E1,3.247859323E0,1.701554437E1
9.311447042E0,-9.717510497E0,1.680805060E1,5.008713233E-1,1.942141724E1
9.321462042E0,-1.105914887E1,2.129270597E1,-6.494490000E-1,2.400220584E1
9.331476042E0,-9.546815069E0,2.118102415E1,1.075830670E-1,2.323336041E1
9.341491042E0,-8.114689869E0,1.713495908E1,3.014263058E-1,1.896169486E1
9.351506042E0,-6.660653982E0,1.388457142E1,7.558204508E-1,1.541807055E1
9.361521042E0,-4.985629011E0,1.098401331E1,1.558464381E0,1.216280627E1
9.371535042E0,-3.185855448E0,8.172829319E0,1.201587760E0,8.853735209E0
9.381550042E0,-1.269913206E0,5.757477264E0,4.859106374E-1,5.915854389E0
9.391565042E0,1.262079106E-1,3.140379313E0,-3.149801517E-1,3.158658444E0
9.401580042E0,1.268026748E0,5.732996142E-1,-1.210738360E0,1.844573571E0
9.411594042E0,1.733006838E0,-1.626272641E0,-1.532019618E0,2.827571310E0
9.421609042E0,1.834418023E0,-3.848266044E0,-2.040324214E0,4.726220893E0
9.431624042E0,1.884027262E0,-5.922178127E0,-2.400646892E0,6.662196183E0
9.441638042E0,1.696979804E0,-8.265769642E0,-1.972350039E0,8.665613245E0
9.451653042E0,1.954549799E0,-1.074890379E1,-1.151587196E0,1.098568845E1
9.461668042E0,2.778019758E0,-1.298463815E1,-4.621785432E-2,1.327856761E1
9.471683042E0,3.628201990E0,-1.475544168E1,1.323465077E0,1.525249057E1
9.481697042E0,4.299670508E0,-1.608394545E1,2.672826886E0,1.686192371E1
9.491712042E0,4.712221978E0,-1.698493122E1,3.710713220E0,1.801283756E1
9.501727042E0,4.807550889E0,-1.712892709E1,4.031137129E0,1.824178597E1
9.511742042E0,4.748386422E0,-1.593918242E1,3.894996407E0,1.708144335E1
9.521756042E0,4.625222133E0,-1.421662310E1,3.788541414E0,1.542264887E1
9.531770625E0,4.003220183E0,-1.287987710E1,3.896344775E0,1.403917763E1
9.541785625E0,3.207262105E0,-1.174246384E1,3.876042950E0,1.277480709E1
9.551800625E0,2.632923733E0,-1.077528877E1,3.706932118E0,1.169531877E1
9.561814625E0,2.198446520E0,-9.975013103E0,3.444180466E0,1.077944491E1
9.571829625E0,1.918110098E0,-9.184920368E0,3.145690632E0,9.896326493E0
9.581844625E0,1.678891296E0,-8.309802684E0,2.745233250E0,8.911105556E0
9.591858625E0,1.318955850E0,-7.435196632E0,2.173251891E0,7.857787047E0
9.601873625E0,8.924923924E-1,-6.551044416E0,1.660371848E0,6.816858535E0
9.611888625E0,3.767901912E-1,-5.811067581E0,9.678996934E-1,5.903160771E0
9.621903625E0,-3.970127866E-2,-5.400367924E0,-1.602853373E-1,5.402891938E0
9.631917625E0,1.862737258E-1,-5.178858438E0,-1.534988687E0,5.404762982E0
9.641932625E0,1.008233641E0,-4.926965066E0,-2.516662667E0,5.623620792E0
9.651947625E0,1.712227296E0,-4.585412242E0,-3.028395778E0,5.755771776E0
9.661962625E0,2.000089231E0,-3.730446403E0,-3.429596925E0,5.447818129E0
9.671976625E0,1.829729433E0,-1.860381122E0,-4.601316669E0,5.289711032E0
9.681991625E0,1.588785410E0,4.777252371E0,-5.995722066E0,7.829116323E0
9.692006625E0,-2.292750268E-1,2.058954788E1,-1.190738544E0,2.062522502E1
9.702021625E0,-1.059301351E1,3.253286007E1,7.444464469E0,3.501455370E1
9.712035625E0,-1.231248551E1,3.344974558E1,7.115393697E0,3.634709901E1
9.722050625E0,-4.445656772E0,2.176885175E1,3.460664059E0,2.248606160E1
9.732065625E0,-6.484456909E0,1.188444944E1,1.715160405E0,1.364661479E1
9.742080625E0,-8.219667270E0,1.515026439E1,-1.359187325E0,1.728990548E1
9.752094625E0,-8.781233277E0,2.207244621E1,-2.955152385E0,2.393816754E1
9.762109625E0,-6.515381078E0,2.332099749E1,-1.220220205E0,2.424475308E1
9.772124625E0,-4.883769052E0,1.954991995E1,8.682530522E-1,2.016939349E1
9.782139625E0,-3.520618485E0,1.600250543E1,2.216000007E0,1.653437603E1
9.792153625E0,-2.783005094E0,1.227673329E1,1.887516150E0,1.272894398E1
9.802168625E0,-1.922718727E0,8.796331372E0,1.445431709E-1,9.005175492E0
9.812183625E0,-1.630992659E0,6.114287812E0,-9.806403378E-1,6.403616789E0
9.822197625E0,-1.380896721E0,3.335647665E0,-1.572102135E0,3.937629518E0
9.832212625E0,-3.794234848E-1,5.879363644E-1,-1.773821719E0,1.906849454E0
9.842227625E0,4.295031327E-1,-1.684983948E0,-1.872391888E0,2.555287700E0
9.852242625E0,1.144077324E0,-3.626971151E0,-2.356384639E0,4.473967056E0
9.862256625E0,1.808965678E0,-5.499134413E0,-2.469486454E0,6.293742882E0
9.872271625E0,2.089945148E0,-7.392999031E0,-1.683260189E0,7.864964733E0
9.882286625E0,2.195949759E0,-9.323209357E0,-4.998916224E-1,9.591366935E0
9.892301625E0,2.457920954E0,-1.092875479E1,8.992704847E-1,1.123778199E1
9.902315625E0,3.049044635E0,-1.212412564E1,2.261972863E0,1.270462975E1
9.912330625E0,3.680089597E0,-1.319393339E1,3.505351112E0,1.413896828E1
9.922345625E0,4.078340239E0,-1.435084944E1,4.381666890E0,1.554923611E1
9.932360625E0,4.242623903E0,-1.521145083E1,4.827483170E0,1.651340933E1
9.942374625E0,4.211788026E0,-1.530087814E1,5.022595693E0,1.664579520E1
9.952389625E0,3.868700601E0,-1.451323364E1,4.843242293E0,1.578156491E1
9.962404625E0,3.525936527E0,-1.311892530E1,4.482908213E0,1.430506538E1
9.972419625E0,3.320351933E0,-1.197148408E1,4.208575566E0,1.311690803E1
9.982433625E0,2.926639023E0,-1.121115191E1,3.788433533E0,1.219046233E1
9.992448625E0,2.536729141E0,-1.048819632E1,3.230141967E0,1.126370605E1
1.000246363E1,2.305247522E0,-9.630182331E0,2.682107880E0,1.025905846E1
1.001247763E1,2.179126296E0,-8.712109247E0,2.006058361E0,9.201831834E0
1.002249263E1,2.137516194E0,-7.852338751E0,1.329212159E0,8.245908337E0
1.003250763E1,2.075185460E0,-7.150514413E0,7.766748378E-1,7.485951834E0
1.004252263E1,1.965342005E0,-6.636878618E0,4.308219722E-1,6.935152093E0
1.005253663E1,1.829285483E0,-6.391601370E0,2.159248102E-1,6.651727368E0
1.006255163E1,1.913388617E0,-6.319321598E0,3.292675307E-1,6.610847039E0
1.007256663E1,2.152562395E0,-6.339116178E0,4.168903962E-1,6.707586480E0
1.008258162E1,2.251657206E0,-6.649119179E0,4.499679489E-1,7.034430836E0
1.009259562E1,2.482425757E0,-6.865256243E0,-1.345584655E-1,7.301526341E0
1.010261063E1,2.796608934E0,-6.556803339E0,-6.491298151E-1,7.157797221E0
1.011262562E1,2.547348855E0,-5.338213776E0,-1.369863756E0,6.071411633E0
1.012264063E1,1.473048255E0,-2.332300542E0,-2.302575052E0,3.593236542E0
1.013265463E1,2.217718796E-1,3.356753774E0,-3.255886381E0,4.681642318E0
1.014266963E1,-1.178889600E0,1.198172372E1,-7.440861415E0,1.415337072E1
1.015268463E1,-4.986022528E0,2.522469654E1,-6.572686715E0,2.653951670E1
1.016269863E1,-1.709172242E1,3.753264344E1,4.424603287E0,4.147774600E1
1.017271363E1,-1.291479082E1,3.550159904E1,8.678332222E0,3.876169252E1
1.018272863E1,-4.682412872E0,1.915563986E1,6.896321915E0,2.089073442E1
1.019274363E1,-4.084735339E0,1.265236661E1,3.980860430E0,1.387856957E1
1.020275763E1,-4.839465869E0,1.945068802E1,2.969504961E0,2.026246910E1
1.021277263E1,-4.992093108E0,2.340159083E1,1.285957088E0,2.396266122E1
1.022278763E1,-3.681479773E0,2.018572045E1,-6.283815551E-1,2.052830892E1
1.023280263E1,-3.668590170E0,1.471475676E1,-1.582356981E0,1.524750714E1
1.024281663E1,-3.673129364E0,1.019886089E1,-9.613718618E-1,1.088268711E1
1.025283163E1,-2.662718220E0,7.553014519E0,-8.148211956E-1,8.049970822E0
1.026284663E1,-1.867671869E0,5.643417383E0,-1.517793488E0,6.135149146E0
1.027286163E1,-1.260678113E0,3.435269017E0,-2.012212555E0,4.176048598E0
1.028287563E1,-6.938801645E-1,7.604970539E-1,-1.899576763E0,2.160605778E0
1.029289063E1,-2.254699512E-1,-1.948463579E0,-1.563131775E0,2.508132365E0
1.030290563E1,1.098149492E-1,-4.349773545E0,-1.128300221E0,4.495069588E0
1.031292063E1,2.826437335E-1,-6.344471058E0,-7.699078551E-1,6.397261804E0
1.032293463E1,3.999312781E-1,-8.055217254E0,-5.110178505E-1,8.081312348E0
1.033294963E1,6.777691850E-1,-9.638139807E0,-1.484891644E-1,9.663082274E0
1.034296463E1,1.071605033E0,-1.116052789E1,5.591436513E-1,1.122579003E1
1.035297963E1,1.400786756E0,-1.247167595E1,1.363700206E0,1.262396859E1
1.036299363E1,1.508732643E0,-1.340035296E1,2.000982977E0,1.363266909E1
1.037300862E1,1.775028877E0,-1.393591465E1,2.753228148E0,1.431575041E1
1.038302363E1,2.420791280E0,-1.435338246E1,3.416953783E0,1.495176884E1
1.039303763E1,3.072156925E0,-1.459081450E1,3.900783689E0,1.541253156E1
1.040305262E1,3.648182218E0,-1.429543421E1,4.255035203E0,1.535493397E1
1.041306763E1,4.092507166E0,-1.344116302E1,4.497594080E0,1.475268893E1
1.042308262E1,4.130985938E0,-1.242860419E1,4.390253234E0,1.381338374E1
1.043309663E1,3.886434329E0,-1.131614920E1,4.057818266E0,1.263429830E1
1.044311163E1,3.612129164E0,-1.030315768E1,3.572895224E0,1.148773761E1
1.045312663E1,3.211262770E0,-9.468909107E0,3.087222276E0,1.046438673E1
1.046314163E1,2.846793539E0,-8.476491600E0,2.689789074E0,9.337564380E0
1.047315563E1,2.534365697E0,-7.551952665E0,2.330691096E0,8.299826475E0
1.048317063E1,2.242245527E0,-6.749006580E0,1.924402871E0,7.367501695E0
1.049318563E1,1.668585725E0,-6.155207212E0,1.249687979E0,6.498651721E0
1.050320063E1,9.436490974E-1,-5.759095774E0,-2.645666277E-1,5.841887816E0
1.051321463E1,8.660387117E-1,-5.551997920E0,-2.416527929E0,6.116723894E0
1.052322963E1,1.578639468E0,-5.476098722E0,-3.790950759E0,6.844783959E0
1.053324475E1,2.006144607E0,-5.082167711E0,-3.642266883E0,6.566517560E0
1.054325975E1,1.728280095E0,-4.148915255E0,-3.084868771E0,5.451317751E0
1.055327375E1,9.677519050E-1,-3.256120854E0,-2.401382325E0,4.159988442E0
1.056328875E1,9.529397383E-2,-6.142312932E-1,-2.061648717E0,2.153312902E0
1.057330375E1,-5.605661327E-1,7.629620061E0,-3.494910032E0,8.410691576E0
1.058331775E1,-1.609519783E0,2.360404950E1,-1.815331395E0,2.372840355E1
1.059333275E1,-7.147693132E0,3.773479104E1,2.946304379E0,3.851862772E1
1.060334775E1,-9.031109945E0,3.982163891E1,2.335718532E0,4.089962657E1
1.061336275E1,-4.093437458E0,2.341084814E1,8.567868085E-1,2.378146599E1
1.062337675E1,-3.775797408E0,1.353348822E1,-7.030284257E-1,1.406791379E1
1.063339175E1,-4.887301355E0,1.756926920E1,-1.488327029E0,1.829699572E1
1.064340675E1,-5.373868343E0,2.218634061E1,-1.556318307E-1,2.282841195E1
1.065342175E1,-4.211801475E0,1.965588319E1,2.639117396E-1,2.010379728E1
1.066343575E1,-4.177128071E0,1.496428785E1,-6.735533425E-1,1.555094801E1
1.067345075E1,-4.119299693E0,1.064251019E1,-1.034562630E0,1.145870730E1
1.068346575E1,-3.393417571E0,6.818663875E0,-1.015140810E0,7.683747179E0
1.069348075E1,-2.400389176E0,3.621004068E0,-1.047305174E0,4.468823870E0
1.070349475E1,-1.497223568E0,8.683594716E-1,-1.298685308E0,2.163864624E0
1.071350975E1,-8.038816398E-1,-1.907384550E0,-1.578668704E0,2.603178132E0
1.072352475E1,-3.826496860E-1,-4.700760850E0,-1.816625823E0,5.054077832E0
1.073353975E1,-1.376424332E-1,-7.264988278E0,-1.832690463E0,7.493847773E0
1.074355375E1,9.748638734E-2,-9.372213702E0,-1.411983005E0,9.478480325E0
1.075356875E1,2.908200413E-1,-1.088154905E1,-8.921664101E-1,1.092193421E1
1.076358375E1,5.645872629E-1,-1.214669940E1,-1.316725722E-1,1.216052642E1
1.077359775E1,1.069894576E0,-1.341208365E1,1.157911837E0,1.350442231E1
1.078361275E1,1.643493276E0,-1.474492254E1,2.872039477E0,1.511166509E1
1.079362775E1,2.544504184E0,-1.601800523E1,4.356532049E0,1.679375969E1
1.080364275E1,3.624353353E0,-1.654256129E1,5.151167779E0,1.770103953E1
1.081365675E1,4.238404552E0,-1.565495629E1,5.197181858E0,1.703092566E1
1.082367175E1,4.327243053E0,-1.390283578E1,4.642758518E0,1.528296705E1
1.083368675E1,3.924740901E0,-1.236709616E1,4.235396744E0,1.364870852E1
1.084370175E1,3.674925044E0,-1.098100551E1,3.866442991E0,1.220806854E1
1.085371575E1,3.458169052E0,-9.999000721E0,3.326263761E0,1.109067082E1
1.086373075E1,3.222313715E0,-9.188927464E0,2.835813930E0,1.014206755E1
1.087374575E1,2.879790546E0,-8.360041376E0,2.521475802E0,9.194635698E0
1.088376075E1,2.523333755E0,-7.527059898E0,2.301179906E0,8.265547345E0
1.089377475E1,2.156938598E0,-6.732052578E0,2.153655532E0,7.389935600E0
1.090378975E1,1.805664486E0,-6.092447877E0,1.922099653E0,6.638735757E0
1.091380475E1,1.334876356E0,-5.726180627E0,1.579504564E0,6.088174942E0
1.092381975E1,5.928899793E-1,-5.645539337E0,8.948204613E-1,5.746680485E0
1.093383375E1,-3.379354432E-2,-5.586825106E0,-5.047290239E-1,5.609679862E0
1.094384875E1,-1.023328520E-1,-5.742863903E0,-1.996066346E0,6.080726822E0
1.095386375E1,4.601508750E-1,-5.927970378E0,-3.206416597E0,6.755270463E0
1.096387875E1,1.299669394E0,-5.646820462E0,-3.734352928E0,6.893555952E0
1.097389275E1,1.939219423E0,-4.461353037E0,-3.694310903E0,6.108369336E0
1.098390775E1,1.733109457E0,-2.205130618E0,-3.570026872E0,4.539973711E0
1.099392275E1,5.913090384E-1,2.868860346E0,-3.843949045E0,4.832799429E0
1.100393675E1,-2.705784425E-2,1.538370629E1,-2.284504817E0,1.555243112E1
1.101395175E1,-4.758082275E0,2.810024961E1,2.281803695E0,2.859143233E1
1.102396675E1,-1.037880077E1,3.359862037E1,4.212624178E0,3.541656390E1
1.103398175E1,-7.813669360E0,2.764912990E1,5.374201634E0,2.923029005E1
1.104399575E1,-6.514118080E0,1.583284964E1,3.170847985E0,1.741169547E1
1.105401075E1,-7.780280589E0,1.696721883E1,-1.108810866E0,1.869889682E1
1.106402575E1,-8.172374405E0,2.124236144E1,-1.723643253E0,2.282534926E1
1.107404075E1,-8.451453822E0,2.251228546E1,-2.245156856E-1,2.404746298E1
1.108405475E1,-5.758501112E0,2.170980891E1,5.123953083E-1,2.246639016E1
1.109406975E1,-3.847651502E0,1.753945776E1,1.222420220E0,1.799809189E1
1.110408475E1,-2.901308300E0,1.274176352E1,1.442202877E0,1.314724597E1
1.111409975E1,-2.437570158E0,8.444828927E0,4.039361823E-1,8.798866309E0
1.112411375E1,-2.307793107E0,4.988140390E0,-5.557489040E-1,5.524156987E0
1.113412875E1,-1.764743771E0,2.254297516E0,-1.328126331E0,3.155962201E0
1.114414375E1,-9.470309807E-1,-1.892661846E-1,-1.923433110E0,2.152274215E0
1.115415775E1,-4.311210573E-1,-2.627044065E0,-2.280265439E0,3.505258387E0
1.116417275E1,2.244833797E-2,-5.093224795E0,-2.067590657E0,5.496942229E0
1.117418775E1,5.769418448E-1,-7.352953790E0,-2.094825819E0,7.667273736E0
1.118420275E1,1.282115175E0,-9.433872591E0,-1.892538762E0,9.706877683E0
1.119421675E1,2.197807565E0,-1.139035738E1,-1.066275735E0,1.164935806E1
1.120423175E1,2.847105488E0,-1.305023338E1,4.799885774E-1,1.336581423E1
1.121424675E1,3.105349229E0,-1.435241650E1,2.698444123E0,1.493039363E1
1.122426175E1,3.408901582E0,-1.545968735E1,4.498548346E0,1.645780910E1
1.123427575E1,4.055622345E0,-1.617381248E1,5.250813105E0,1.748174250E1
1.124429075E1,4.326374157E0,-1.601597508E1,4.951733286E0,1.731325023E1
1.125430575E1,4.199809128E0,-1.467039042E1,3.875740941E0,1.574420908E1
1.126432075E1,3.797535017E0,-1.313979285E1,3.231014079E0,1.405399873E1
1.127433475E1,3.359072780E0,-1.184433286E1,3.139641395E0,1.270546886E1
1.128434975E1,2.935827338E0,-1.095574787E1,2.984089086E0,1.172826847E1
1.129436475E1,2.671146104E0,-1.037172564E1,2.843223814E0,1.108113874E1
1.130437975E1,2.446771483E0,-9.825352449E0,2.723279002E0,1.048525107E1
1.131439375E1,2.172395566E0,-9.170977097E0,2.707886499E0,9.806057959E0
1.132440875E1,1.906645462E0,-8.446517603E0,2.572150697E0,9.032990410E0
1.133442375E1,1.572217325E0,-7.593326978E0,2.328947164E0,8.096571917E0
1.134443775E1,1.025970000E0,-6.874017127E0,2.164635434E0,7.279448637E0
1.135445275E1,4.711810626E-1,-6.472074845E0,1.954581959E0,6.777178987E0
1.136446775E1,-1.623786405E-2,-6.377323639E0,1.516544084E0,6.555183172E0
1.137448275E1,-1.914420797E-1,-6.310144393E0,6.667427981E-1,6.348158654E0
1.138449675E1,-6.778867140E-2,-6.293998477E0,-1.329735777E-1,6.295767952E0
1.139451175E1,3.767399052E-1,-6.247068724E0,-1.008426307E0,6.339142230E0
1.140452675E1,8.580552158E-1,-5.983575060E0,-1.972395648E0,6.358441149E0
1.141454175E1,1.415368396E0,-5.056022471E0,-2.484415272E0,5.808523923E0
1.142455575E1,1.572657620E0,-2.733824163E0,-4.531507638E0,5.521015126E0
1.143457075E1,1.446774815E0,3.267170337E0,-8.114960010E0,8.866799611E0
1.144458575E1,2.815569115E0,1.984781220E1,-6.360304148E0,2.103132301E1
1.145460075E1,-2.262792204E0,3.576537396E1,2.394327367E0,3.591677890E1
1.146461475E1,-7.569831696E0,4.057392297E1,5.936143616E0,4.169872154E1
1.147462975E1,-3.774570077E0,2.531843910E1,5.721891110E0,2.622995950E1
1.148464475E1,-6.852816877E0,8.303980027E0,3.472345626E0,1.131257564E1
1.149465975E1,-7.912238213E0,1.193321756E1,2.250700016E-1,1.431977134E1
1.150467375E1,-9.181266443E0,1.884517376E1,-1.040891071E0,2.098856074E1
1.151468875E1,-8.497449775E0,2.293456904E1,-6.782441251E-1,2.446755249E1
1.152470375E1,-6.985429974E0,2.118881264E1,-6.702112202E-1,2.232064506E1
1.153471913E1,-5.333355324E0,1.612705580E1,5.135667980E-1,1.699383296E1
1.154473313E1,-3.780987689E0,1.259917566E1,1.450418069E0,1.323400196E1
1.155474813E1,-2.407056902E0,9.454175293E0,5.293567653E-1,9.770136743E0
1.156476313E1,-1.152056581E0,6.426047317E0,-9.668254137E-1,6.599702256E0
1.157477713E1,4.257854730E-2,3.767003780E0,-2.141480606E0,4.333367005E0
1.158479213E1,7.505521095E-1,1.385342798E0,-2.464991699E0,2.925523408E0
1.159480713E1,9.548821834E-1,-1.218114769E0,-2.275685607E0,2.752153440E0
1.160482213E1,1.308867649E0,-3.615218832E0,-2.188367528E0,4.424013355E0
1.161483613E1,1.651114975E0,-5.668645195E0,-2.126525913E0,6.275494520E0
1.162485113E1,1.720932192E0,-7.589485942E0,-1.617526814E0,7.948477682E0
1.163486613E1,1.689884500E0,-9.440405685E0,-6.222194669E-1,9.610625691E0
1.164488113E1,1.811419170E0,-1.105743797E1,5.711038385E-1,1.121937313E1
1.165489513E1,1.891699102E0,-1.246504872E1,2.094148857E0,1.278050956E1
1.166491013E1,1.879278300E0,-1.389934265E1,3.471327041E0,1.444899735E1
1.167492513E1,2.068466863E0,-1.528460300E1,4.235960123E0,1.599503055E1
1.168494013E1,2.444791031E0,-1.612580684E1,4.216815170E0,1.684636992E1
1.169495413E1,2.879439129E0,-1.588616455E1,3.657352407E0,1.655408169E1
1.170496912E1,3.247867509E0,-1.447774104E1,3.133930419E0,1.516493155E1
1.171498413E1,3.084912041E0,-1.305228927E1,3.212915193E0,1.379136547E1
1.172499912E1,2.845291389E0,-1.193272639E1,3.332336971E0,1.271180994E1
1.173501312E1,2.582525996E0,-1.119504751E1,3.131372262E0,1.190814938E1
1.174502813E1,2.480840285E0,-1.059951211E1,2.851078963E0,1.125312742E1
1.175504312E1,2.348941425E0,-1.002090205E1,2.481843082E0,1.058751854E1
1.176505713E1,2.127533096E0,-9.394333134E0,1.897057490E0,9.817266382E0
1.177507213E1,1.962291074E0,-8.708991512E0,1.215832601E0,9.009737417E0
1.178508713E1,1.873233887E0,-8.027585067E0,6.706760739E-1,8.270485693E0
1.179510213E1,1.867812495E0,-7.462149957E0,3.359837888E-1,7.699694189E0
1.180511613E1,1.930661146E0,-7.088664320E0,1.743312263E-1,7.348945889E0
1.181513113E1,1.782860199E0,-6.994185594E0,-8.193264753E-2,7.218305589E0
1.182514613E1,1.892452662E0,-6.944007713E0,-3.632091558E-1,7.206423599E0
1.183516113E1,2.377675228E0,-6.939155109E0,-2.424968970E-1,7.339210983E0
1.184517513E1,2.825656147E0,-6.885154903E0,5.393682218E-1,7.461944035E0
1.185519013E1,2.675186238E0,-6.938393801E0,1.659179163E0,7.619107917E0
1.186520513E1,2.183084276E0,-5.474825199E0,1.056671537E0,5.987998217E0
1.187522013E1,5.600043614E-1,-2.149371570E0,-1.336191688E0,2.592066985E0
1.188523413E1,-1.243788870E0,3.810125826E0,-5.724488443E0,6.988121171E0
1.189524913E1,-7.172381830E-1,1.862261470E1,-1.062127194E1,2.145058569E1
1.190526413E1,-1.182149130E1,4.162405951E1,2.942812421E0,4.337015254E1
1.191527913E1,-2.172586770E1,4.890893241E1,8.722735977E0,5.422345544E1
1.192529313E1,-9.384274169E0,2.943167932E1,4.711906228E0,3.124884653E1
1.193530813E1,-7.847727637E0,1.018403469E1,5.029581946E0,1.380572657E1
1.194532313E1,-8.658486772E0,1.539044930E1,7.199151845E-1,1.767352825E1
1.195533813E1,-7.395274767E0,2.175220356E1,-8.694516584E-1,2.299139828E1
1.196535213E1,-4.513701990E0,2.158804883E1,-9.880378696E-1,2.207699202E1
1.197536713E1,-2.745885507E0,1.762128136E1,-1.554786336E-1,1.783461851E1
1.198538212E1,-2.584735951E0,1.323039662E1,6.089245065E-1,1.349425966E1
1.199539612E1,-1.993903461E0,9.482376999E0,2.065144475E-1,9.691943705E0
1.200541113E1,-1.650860475E0,5.680288171E0,-1.129719340E0,6.022232127E0
1.201542612E1,-9.323571007E-1,2.696515419E0,-2.094916889E0,3.539655624E0
1.202544113E1,4.231410697E-2,5.307780772E-1,-2.406008642E0,2.464222684E0
1.203545513E1,7.784956607E-1,-1.323135440E0,-1.968123964E0,2.496047841E0
1.204547013E1,1.117816309E0,-3.082789502E0,-1.212781816E0,3.496275754E0
1.205548513E1,1.209354470E0,-4.760298370E0,-4.259486103E-1,4.929950408E0
1.206550013E1,1.313434032E0,-6.717583643E0,2.892278445E-1,6.850889847E0
1.207551413E1,1.672306600E0,-8.771988244E0,7.862730423E-1,8.964519642E0
1.208552913E1,2.281692160E0,-1.063811075E1,1.563671912E0,1.099184194E1
1.209554413E1,2.987431062E0,-1.218937238E1,2.580854570E0,1.281274185E1
1.210555913E1,3.681561926E0,-1.344110338E1,3.337741845E0,1.433030631E1
1.211557313E1,4.195840622E0,-1.480928518E1,3.461968280E0,1.577673067E1
1.212558813E1,4.700576955E0,-1.615560893E1,3.181834903E0,1.712376118E1
1.213560313E1,5.198412697E0,-1.690102367E1,2.769227592E0,1.789795288E1
1.214561713E1,5.315220770E0,-1.660907453E1,2.618133785E0,1.763427212E1
1.215563213E1,4.937484791E0,-1.563988918E1,2.779077519E0,1.663454723E1
1.216564713E1,4.310363311E0,-1.436131479E1,2.996416478E0,1.529068691E1
1.217566213E1,3.844192874E0,-1.275551851E1,3.200491321E0,1.370124871E1
1.218567613E1,3.480690480E0,-1.117585227E1,3.286256234E0,1.215789292E1
1.219569113E1,3.047124702E0,-9.842964263E0,3.363191559E0,1.083881783E1
1.220570613E1,2.613148742E0,-8.661205727E0,3.348396057E0,9.646594588E0
1.221572113E1,2.175447520E0,-7.660372907E0,3.044679981E0,8.525488911E0
1.222573513E1,1.811820435E0,-6.748590258E0,2.459871000E0,7.407909900E0
1.223575013E1,1.568931336E0,-5.976493497E0,1.583006169E0,6.378552233E0
1.224576513E1,1.153929006E0,-5.375737697E0,4.271975756E-1,5.514762525E0
1.225578013E1,8.788202865E-1,-4.990881565E0,-1.321829610E0,5.237218480E0
1.226579413E1,7.003192645E-1,-5.102217228E0,-3.216063334E0,6.071748602E0
1.227580912E1,1.237470368E0,-5.162722462E0,-4.997017633E0,7.290762741E0
1.228582413E1,1.754701324E0,-4.843027115E0,-5.871529545E0,7.810809662E0
1.229583912E1,1.395705379E0,-3.763748050E0,-5.849421222E0,7.094330238E0
1.230585312E1,3.727857256E-1,-4.649986553E-1,-5.389251198E0,5.422104888E0
1.231586813E1,-5.814047322E-1,7.968899487E0,-4.131069845E0,8.994838996E0
1.232588312E1,-4.617233375E0,2.096501397E1,1.555548960E0,2.152371685E1
1.233589713E1,-1.200635336E1,3.160601090E1,8.209032354E0,3.479196255E1
1.234591213E1,-1.071009582E1,3.252105103E1,6.040443910E0,3.476797198E1
1.235592713E1,-7.720019769E0,2.328040845E1,4.582616396E0,2.495148284E1
1.236594213E1,-1.003819344E1,1.641602052E1,3.146893111E0,1.949753814E1
1.237595613E1,-1.025938542E1,1.843119674E1,-9.042485118E-2,2.109436368E1
1.238597113E1,-8.274930475E0,1.944107988E1,-1.218140058E0,2.116397709E1
1.239598613E1,-5.459603727E0,1.878333127E1,-9.051840663E-2,1.956090489E1
1.240600113E1,-3.621854545E0,1.729769176E1,1.432255886E0,1.773074527E1
1.241601513E1,-2.506736434E0,1.515802599E1,2.258731606E0,1.552904852E1
1.242603013E1,-1.266946621E0,1.212730068E1,1.950026686E0,1.234824601E1
1.243604513E1,-8.204052866E-2,8.868071446E0,9.457124336E-1,8.918732748E0
1.244606013E1,1.657749957E-1,5.948723316E0,-6.757948726E-2,5.951416422E0
1.245607413E1,-3.264939040E-3,2.878046907E0,-1.095874340E0,3.079627449E0
1.246608913E1,-9.420390666E-2,-1.301198441E-1,-1.678541194E0,1.686210571E0
1.247610413E1,7.983262002E-2,-2.879308151E0,-1.950824977E0,3.478865730E0
1.248611813E1,6.475807415E-1,-5.252595336E0,-2.083637610E0,5.687764435E0
1.249613313E1,1.016376181E0,-7.458086143E0,-1.860544113E0,7.753560076E0
1.250614813E1,1.206746174E0,-9.601529220E0,-1.112760222E0,9.740833384E0
1.251616313E1,1.479712180E0,-1.132940016E1,1.166636467E-1,1.142621838E1
1.252617713E1,2.157193244E0,-1.229201791E1,1.439914277E0,1.256266453E1
1.253619179E1,2.994284584E0,-1.305560814E1,2.681041932E0,1.366025732E1
1.254620679E1,3.567913688E0,-1.415358778E1,3.764102976E0,1.507390216E1
1.255622179E1,3.837405426E0,-1.518051321E1,4.488403134E0,1.628862868E1
1.256623579E1,3.997207491E0,-1.563612124E1,4.903547844E0,1.686744606E1
1.257625079E1,4.223573089E0,-1.501922829E1,4.860868725E0,1.634147585E1
1.258626579E1,4.223463746E0,-1.385263626E1,4.321106693E0,1.511307846E1
1.259628079E1,3.897932294E0,-1.281816558E1,3.673849156E0,1.389231488E1
1.260629479E1,3.718712795E0,-1.193925422E1,3.180041269E0,1.290299495E1
1.261630979E1,3.550731645E0,-1.130485588E1,2.764046667E0,1.216747368E1
1.262632479E1,3.155020157E0,-1.067918861E1,2.427889362E0,1.139709912E1
1.263633979E1,2.700926558E0,-9.955537198E0,2.072079273E0,1.052146557E1
1.264635379E1,2.320197098E0,-9.162265331E0,1.740036361E0,9.610314620E0
1.265636879E1,2.001537732E0,-8.338365748E0,1.436637789E0,8.694735463E0
1.266638379E1,1.764145600E0,-7.539509790E0,1.106858335E0,7.821863777E0
1.267639779E1,1.544948688E0,-6.736354959E0,7.523425269E-1,6.952076227E0
1.268641279E1,1.344062625E0,-6.013530346E0,3.286782776E-1,6.170662928E0
1.269642779E1,1.011734223E0,-5.488133461E0,-1.891787687E-1,5.583816225E0
1.270644279E1,9.153048657E-1,-5.158016038E0,-9.834955332E-1,5.330119690E0
1.271645679E1,9.582992962E-1,-4.750072759E0,-1.647300690E0,5.118117654E0
1.272647179E1,5.423842156E-1,-3.689787204E0,-2.559551701E0,4.523274827E0
1.273648679E1,9.212916836E-2,-1.124753446E0,-4.135714581E0,4.286921179E0
1.274650179E1,-2.474424720E-1,4.977104940E0,-5.873903514E0,7.702956825E0
1.275651579E1,-2.006472928E0,1.740606874E1,-3.529043445E0,1.787320089E1
1.276653079E1,-9.219641719E0,3.094875112E1,3.486754335E0,3.248052409E1
1.277654579E1,-9.018733143E0,3.677009635E1,5.438827400E0,3.824863888E1
1.278656079E1,-2.127270118E0,2.651291767E1,3.969287621E0,2.689266304E1
1.279657479E1,-4.744421425E0,1.297499492E1,2.102203981E0,1.397423663E1
1.280658979E1,-6.119773670E0,1.498229377E1,-3.225930803E-1,1.618718081E1
1.281660479E1,-6.100883070E0,2.110806727E1,-1.365886041E0,2.201447076E1
1.282661979E1,-5.349194262E0,2.197590868E1,-9.547601227E-1,2.263771208E1
1.283663379E1,-4.721682188E0,1.876673219E1,-4.351825333E-1,1.935649513E1
1.284664879E1,-4.207117270E0,1.541602502E1,6.749851795E-1,1.599403852E1
1.285666379E1,-3.282320473E0,1.217575889E1,1.225872562E0,1.266986566E1
1.286667779E1,-2.109750106E0,8.398580959E0,4.831048509E-1,8.672980914E0
1.287669279E1,-1.553919048E0,5.245818998E0,-2.558900906E-1,5.477112479E0
1.288670779E1,-1.138555945E0,2.412463530E0,-8.302905893E-1,2.793863344E0
1.289672279E1,-5.718943821E-1,-2.266363245E-1,-9.406439209E-1,1.123938697E0
1.290673679E1,-1.258474298E-1,-2.601460158E0,-8.490417328E-1,2.739398546E0
1.291675179E1,2.006739561E-1,-4.867561448E0,-1.183936332E0,5.013494761E0
1.292676679E1,4.149026352E-1,-6.935256186E0,-1.322507741E0,7.072407601E0
1.293678179E1,6.734570096E-1,-8.802713608E0,-7.302707496E-1,8.858589424E0
1.294679579E1,1.015138033E0,-1.073037981E1,6.981867850E-2,1.077851709E1
1.295681079E1,1.488781358E0,-1.282256035E1,9.112262866E-1,1.294082135E1
1.296682579E1,2.176928620E0,-1.462089491E1,2.189554220E0,1.494335083E1
1.297684079E1,3.137983124E0,-1.602358581E1,3.554889893E0,1.671046027E1
1.298685479E1,4.253488614E0,-1.681408025E1,4.461265329E0,1.790833182E1
1.299686979E1,5.040610380E0,-1.675585836E1,4.522456149E0,1.807260778E1
1.300688479E1,5.336408740E0,-1.534646421E1,3.896157664E0,1.670841903E1
1.301689879E1,5.011747938E0,-1.363899304E1,3.522890128E0,1.495160538E1
1.302691379E1,4.370851880E0,-1.246620998E1,3.496499012E0,1.366514701E1
1.303692879E1,3.934045575E0,-1.146549878E1,3.369836919E0,1.258134244E1
1.304694379E1,3.519914480E0,-1.053188087E1,3.038588937E0,1.151274665E1
1.305695779E1,3.048481548E0,-9.731932070E0,2.670109685E0,1.054197454E1
1.306697279E1,2.575841752E0,-9.044391310E0,2.428446309E0,9.712534498E0
1.307698779E1,2.154929348E0,-8.164947272E0,2.181498804E0,8.721755642E0
1.308700279E1,1.737578484E0,-7.300177991E0,1.881210659E0,7.736325434E0
1.309701679E1,1.228488753E0,-6.708706400E0,1.487935412E0,6.980678904E0
1.310703179E1,6.100147198E-1,-6.338889306E0,9.110923854E-1,6.433018337E0
1.311704679E1,3.848593488E-2,-6.124591191E0,8.201070786E-2,6.125261152E0
1.312706179E1,-1.100831902E-1,-6.041166041E0,-7.326397491E-1,6.086424768E0
1.313707579E1,2.001376203E-1,-5.799188377E0,-1.349563100E0,5.957513027E0
1.314709079E1,6.181454194E-1,-5.637361422E0,-1.524249837E0,5.872417315E0
1.315710579E1,7.470949432E-1,-5.296519035E0,-1.795450424E0,5.642243079E0
1.316712079E1,5.955545555E-1,-4.183555915E0,-3.007110159E0,5.186476340E0
1.317713479E1,2.221880552E-1,-1.654885406E0,-3.898370543E0,4.240908644E0
1.318714979E1,-4.351455496E-1,4.941280219E0,-4.150595745E0,6.467847160E0
1.319716479E1,-2.855963143E0,1.969230901E1,2.488832259E-1,1.989988699E1
1.320717879E1,-1.136840342E1,3.687600346E1,5.943167292E0,3.904358417E1
1.321719379E1,-1.273827157E1,4.274193488E1,2.390482092E0,4.466375448E1
1.322720879E1,-8.419163159E0,2.685192754E1,-7.260918908E-1,2.815023144E1
1.323722379E1,-1.034382389E1,1.279014806E1,-1.009792216E-1,1.644970446E1
1.324723779E1,-8.214387234E0,1.648585031E1,1.996155078E0,1.852684682E1
1.325725279E1,-5.032067013E0,2.148724517E1,1.352886658E0,2.211003631E1
1.326726779E1,-3.245485938E0,2.223355337E1,6.375475042E-1,2.247822371E1
1.327728279E1,-3.531071260E0,1.990459568E1,1.873897107E0,2.030204137E1
1.328729679E1,-3.674806638E0,1.662399780E1,2.330247731E0,1.718404961E1
1.329731179E1,-2.566461648E0,1.261780606E1,1.841100660E0,1.300712908E1
1.330732679E1,-7.374284725E-1,8.288148106E0,3.335193336E-1,8.327570769E0
1.331734179E1,7.070985264E-1,4.827353069E0,-1.262218562E0,5.039496173E0
1.332735579E1,1.086112121E0,2.141121733E0,-2.073676147E0,3.172408325E0
1.333737079E1,5.499563599E-1,-9.250113899E-1,-1.911379075E0,2.193505878E0
1.334738579E1,2.509866156E-1,-3.809926436E0,-1.958769589E0,4.291306564E0
1.335739979E1,5.429136810E-1,-6.440705118E0,-1.879428135E0,6.731247120E0
1.336741479E1,1.004900874E0,-8.893463565E0,-1.354482655E0,9.051969024E0
1.337742979E1,1.246384741E0,-1.129440457E1,-6.174452153E-1,1.137973146E1
1.338744479E1,1.570494589E0,-1.323169821E1,3.076945210E-1,1.332812690E1
1.339745879E1,2.118072886E0,-1.443847465E1,1.505380872E0,1.467044493E1
1.340747379E1,2.572499483E0,-1.532822440E1,2.803771188E0,1.579345908E1
1.341748879E1,2.986678233E0,-1.622675434E1,3.940224912E0,1.696328905E1
1.342750379E1,3.380891665E0,-1.702477180E1,4.674557723E0,1.797567171E1
1.343751779E1,3.543017706E0,-1.639421625E1,4.646629082E0,1.740443802E1
1.344753279E1,3.288756796E0,-1.433278973E1,3.764132212E0,1.517937660E1
1.345754779E1,2.954223263E0,-1.247173910E1,3.180189204E0,1.320550320E1
1.346756279E1,2.921099371E0,-1.082602973E1,2.748141071E0,1.154504312E1
1.347757679E1,2.861727035E0,-9.685878230E0,2.369722137E0,1.037406872E1
1.348759179E1,2.791176578E0,-8.827226890E0,2.159286401E0,9.506477740E0
1.349760679E1,2.533982120E0,-8.045728392E0,2.286716526E0,8.739787366E0
1.350762179E1,2.316658217E0,-7.224092267E0,2.281671548E0,7.922148662E0
1.351763579E1,2.184677935E0,-6.459374692E0,2.069129060E0,7.125842698E0
1.352765079E1,2.119068813E0,-5.863971434E0,1.799226263E0,6.489516835E0
1.353766592E1,2.026294697E0,-5.452116952E0,1.340180950E0,5.968880501E0
1.354767992E1,1.674204606E0,-5.162100903E0,3.839612165E-1,5.440374345E0
1.355769492E1,1.300268587E0,-4.855196925E0,-9.306308565E-1,5.111722740E0
1.356770992E1,1.517464290E0,-4.463024172E0,-1.557572827E0,4.964606302E0
1.357772492E1,1.867937479E0,-5.038684307E0,-1.319297912E0,5.533360367E0
1.358773892E1,2.776070881E0,-5.598693200E0,-3.403936127E-1,6.258418562E0
1.359775392E1,3.266697298E0,-4.748420336E0,1.262039638E-1,5.764957446E0
1.360776892E1,2.277775987E0,-2.629871778E0,-1.022833261E0,3.626386204E0
1.361778392E1,8.451202977E-1,2.069879258E-1,-2.179951631E0,2.347181593E0
1.362779792E1,-6.108893171E-1,3.266131287E0,-2.818189252E0,4.356947326E0
1.363781292E1,-1.499557046E0,7.707103854E0,-3.503282075E0,8.597738450E0
1.364782792E1,-3.540289980E0,1.554734647E1,-5.910295415E-1,1.595628250E1
1.365784292E1,-9.510512631E0,2.385079265E1,7.274554907E0,2.668762465E1
1.366785692E1,-1.056636190E1,2.597313780E1,7.385767779E0,2.899657664E1
1.367787192E1,-8.800577620E0,2.167327317E1,4.168118681E0,2.376034826E1
1.368788692E1,-8.935320858E0,1.979841726E1,9.465940475E-1,2.174197151E1
1.369790092E1,-8.397912623E0,2.148547229E1,-5.134021989E-1,2.307409885E1
1.370791592E1,-7.497247869E0,2.156148142E1,-2.133991054E-1,2.282874823E1
1.371793092E1,-5.849694872E0,1.910214135E1,4.652468696E-1,1.998317264E1
1.372794592E1,-4.020575303E0,1.541622149E1,5.612984964E-1,1.594176799E1
1.373795992E1,-2.865136839E0,1.208874882E1,-2.844109082E-1,1.242689610E1
1.374797492E1,-2.051231902E0,9.181400928E0,-1.564095835E0,9.536879527E0
1.375798992E1,-9.847946383E-1,6.364722304E0,-2.430918512E0,6.883957822E0
1.376800492E1,3.859198876E-1,3.537973021E0,-2.781174915E0,4.516760030E0
1.377801892E1,1.515965941E0,6.215525919E-1,-3.057072570E0,3.468453987E0
1.378803392E1,2.366878198E0,-2.235720327E0,-3.113178943E0,4.504713189E0
1.379804892E1,2.851695845E0,-4.744790969E0,-2.680168358E0,6.150488839E0
1.380806392E1,3.153537303E0,-6.762406059E0,-2.052052267E0,7.738594945E0
1.381807792E1,3.591774714E0,-8.283717086E0,-1.221215547E0,9.111102116E0
1.382809292E1,3.925004902E0,-9.444982300E0,-3.949943277E-1,1.023569122E1
1.383810792E1,3.845940022E0,-1.036385528E1,7.189043471E-1,1.107779646E1
1.384812292E1,3.409947649E0,-1.145281266E1,2.363043740E0,1.218107698E1
1.385813692E1,2.839509370E0,-1.288654526E1,4.057746638E0,1.380547609E1
1.386815192E1,2.153353816E0,-1.443707015E1,5.210215302E0,1.549878287E1
1.387816692E1,1.588374497E0,-1.539195554E1,5.535432758E0,1.643399662E1
1.388818092E1,1.214124337E0,-1.522928717E1,5.126153390E0,1.611467450E1
1.389819592E1,1.063558241E0,-1.395615771E1,4.279903995E0,1.463636131E1
1.390821092E1,1.207388344E0,-1.238624346E1,3.634808174E0,1.296490046E1
1.391822592E1,1.465947981E0,-1.104520443E1,3.228634555E0,1.160041488E1
1.392823992E1,1.766170784E0,-1.011119826E1,2.886860415E0,1.066253500E1
1.393825492E1,2.180861457E0,-9.274273424E0,2.614189546E0,9.879387189E0
1.394826992E1,2.521073514E0,-8.548107128E0,2.409108397E0,9.231996014E0
1.395828492E1,2.804212360E0,-7.760677798E0,2.232152356E0,8.548346682E0
1.396829892E1,2.957651193E0,-6.964551905E0,2.080420618E0,7.847345651E0
1.397831392E1,2.827078190E0,-6.384447302E0,1.780412262E0,7.205789774E0
1.398832892E1,2.598807276E0,-6.045411705E0,1.401569113E0,6.727941581E0
1.399834292E1,2.417570195E0,-5.878853182E0,9.850491384E-1,6.432408740E0
1.400835792E1,2.043074744E0,-5.843835962E0,5.573931411E-1,6.215726850E0
1.401837292E1,1.937796503E0,-5.683920461E0,-2.600519925E-2,6.005221342E0
1.402838792E1,2.118816360E0,-5.457743728E0,-1.079821979E0,5.953349046E0
1.403840192E1,2.338235320E0,-5.369782893E0,-1.869151069E0,6.147815746E0
1.404841692E1,2.487927987E0,-4.683209848E0,-2.274128348E0,5.770086645E0
1.405843192E1,2.175780519E0,-2.754140314E0,-2.476941946E0,4.295876062E0
1.406844692E1,9.958088923E-1,8.314810824E-1,-1.855293752E0,2.263870811E0
1.407846092E1,-4.564381854E-1,7.165126605E0,-1.168469861E0,7.274111417E0
1.408847592E1,-1.989857334E0,1.746492447E1,-9.372290008E-1,1.760288378E1
1.409849092E1,-6.826538905E0,2.772851872E1,1.726535579E0,2.860862298E1
1.410850592E1,-9.458306935E0,3.197199748E1,5.316240524E0,3.376285839E1
1.411851992E1,-7.161829945E0,2.444627543E1,5.436946936E0,2.604750626E1
1.412853492E1,-7.967138890E0,1.667577489E1,2.225703023E0,1.861479316E1
1.413854992E1,-8.944263005E0,1.895335894E1,-4.227316184E-1,2.096206951E1
1.414856392E1,-8.348796011E0,2.202593277E1,-4.514936337E-1,2.355945576E1
1.415857892E1,-6.065440173E0,2.107481064E1,9.067337246E-1,2.194901761E1
1.416859392E1,-4.770654958E0,1.762846525E1,1.722821427E0,1.834366510E1
1.417860892E1,-3.503179749E0,1.445341428E1,1.684714977E0,1.496702099E1
1.418862292E1,-2.714189213E0,1.121019999E1,9.024526857E-1,1.156934863E1
1.419863792E1,-1.914788148E0,8.203812545E0,-5.293412702E-1,8.440921520E0
1.420865292E1,-9.081529900E-1,5.396048001E0,-2.090247303E0,5.857577116E0
1.421866792E1,-9.347563595E-2,2.653441905E0,-3.322742860E0,4.253247200E0
1.422868192E1,3.797461049E-1,-1.732699567E-1,-3.655128418E0,3.678884795E0
1.423869692E1,6.839106618E-1,-3.075363538E0,-3.353928692E0,4.601568467E0
1.424871192E1,1.033524895E0,-5.599957368E0,-3.304581116E0,6.583916204E0
1.425872592E1,1.410332043E0,-7.684606692E0,-2.829083785E0,8.309388157E0
1.426874092E1,1.816396612E0,-9.541383591E0,-1.689348310E0,9.858559489E0
1.427875592E1,2.283864254E0,-1.093889386E1,-4.248969886E-1,1.118284276E1
1.428877092E1,2.808306581E0,-1.164579533E1,9.372975594E-1,1.201622493E1
1.429878492E1,2.888879751E0,-1.213599900E1,2.307225927E0,1.268666187E1
1.430879992E1,2.477643904E0,-1.282943550E1,3.609525983E0,1.355587742E1
1.431881492E1,1.945919017E0,-1.342895053E1,4.759888187E0,1.437984174E1
1.432882992E1,1.704781597E0,-1.351394097E1,5.442226971E0,1.466801675E1
1.433884392E1,1.684524211E0,-1.303869215E1,5.515504278E0,1.425713513E1
1.434885892E1,1.412405173E0,-1.227201693E1,4.915626730E0,1.329513723E1
1.435887392E1,1.258807297E0,-1.133473165E1,4.239586566E0,1.216695655E1
1.436888892E1,1.467503779E0,-1.031249334E1,3.498351118E0,1.098815484E1
1.437890292E1,1.971753039E0,-9.470745133E0,2.576932257E0,1.001116393E1
1.438891792E1,2.536033323E0,-8.842309198E0,1.443233449E0,9.311327497E0
1.439893292E1,2.964331637E0,-8.449346486E0,3.445705712E-1,8.960884274E0
1.440894692E1,3.345891402E0,-8.114125612E0,-1.622616962E-1,8.778402621E0
1.441896192E1,3.474235446E0,-7.787260995E0,5.654462188E-2,8.527305731E0
1.442897692E1,3.345777673E0,-7.840856574E0,6.695526776E-1,8.551114596E0
1.443899192E1,3.224379829E0,-8.289178385E0,1.189731507E0,8.973436612E0
1.444900592E1,3.023341445E0,-8.797630039E0,1.248423811E0,9.386024175E0
1.445902092E1,2.672627204E0,-9.118705328E0,7.111123475E-1,9.528872116E0
1.446903592E1,2.353126570E0,-9.365342638E0,3.354454064E-1,9.662265315E0
1.447905092E1,2.275168713E0,-9.479846324E0,4.791237742E-2,9.749162764E0
1.448906492E1,2.576140544E0,-8.975791776E0,-2.702325797E-1,9.342074917E0
1.449907992E1,2.907125987E0,-7.192344809E0,-1.612002803E0,7.923367870E0
1.450909492E1,2.784943446E0,-3.853154901E0,-4.456374718E0,6.516286390E0
1.451910992E1,1.151445693E0,-3.414481580E-2,-6.900862863E0,6.996349141E0
1.452912392E1,-7.377129395E-1,6.074842495E0,-9.427767513E0,1.123969448E1
1.453913842E1,-6.959255205E-1,2.024648472E1,-3.699249169E0,2.059341886E1
1.454915342E1,-8.850348535E0,3.027581378E1,8.800540198E0,3.274756597E1
1.455916742E1,-1.213292804E1,2.854005846E1,1.262402048E1,3.348296242E1
1.456918242E1,-7.758631273E0,1.825702806E1,7.743300458E0,2.129493214E1
1.457919742E1,-8.995571737E0,1.511026242E1,1.953042533E0,1.769335233E1
1.458921242E1,-9.321912444E0,2.131061014E1,-1.786715999E0,2.332879144E1
1.459922642E1,-7.424443603E0,2.342741447E1,-1.463869150E0,2.461928156E1
1.460924142E1,-5.204755756E0,2.059577399E1,-1.282187973E0,2.128190299E1
1.461925642E1,-4.336495103E0,1.677965185E1,3.902548671E-2,1.733099619E1
1.462927142E1,-4.530578223E0,1.379697779E1,1.287634216E0,1.457877694E1
1.463928542E1,-4.491925204E0,1.159110165E1,7.972631764E-1,1.245659095E1
1.464930042E1,-4.043264839E0,1.003419862E1,-5.669659102E-1,1.083303202E1
1.465931542E1,-3.277101833E0,8.170195148E0,-1.553450832E0,8.938942592E0
1.466932942E1,-2.010923536E0,5.788831789E0,-2.121940527E0,6.485138283E0
1.467934442E1,-6.556417130E-1,2.972267185E0,-2.630026145E0,4.022595655E0
1.468935942E1,6.034715393E-1,6.178869724E-2,-2.796623844E0,2.861660474E0
1.469937442E1,1.524744366E0,-2.394460537E0,-2.728495595E0,3.937381727E0
1.470938842E1,2.214053031E0,-4.505478466E0,-2.498457946E0,5.607464590E0
1.471940342E1,2.935257234E0,-6.421360774E0,-2.234488757E0,7.405575550E0
1.472941842E1,3.483933346E0,-7.894571435E0,-1.356558563E0,8.735118823E0
1.473943342E1,3.627073478E0,-8.949750032E0,-1.995976299E-2,9.656815522E0
1.474944742E1,3.262787265E0,-9.944818082E0,9.752427730E-1,1.051172136E1
1.475946242E1,2.681944742E0,-1.119029607E1,1.900495945E0,1.166308015E1
1.476947742E1,2.447470517E0,-1.235449541E1,2.769502119E0,1.289549576E1
1.477949242E1,2.323538928E0,-1.360761571E1,3.395265291E0,1.421597217E1
1.478950642E1,2.126326377E0,-1.478825158E1,3.754390751E0,1.540484010E1
1.479952142E1,1.905926254E0,-1.532558263E1,3.743742971E0,1.589092978E1
1.480953642E1,1.853672319E0,-1.493400629E1,3.543065068E0,1.546007617E1
1.481955042E1,2.141074663E0,-1.377709842E1,3.225972025E0,1.431081889E1
1.482956542E1,2.376321013E0,-1.255886028E1,2.955478952E0,1.311894542E1
1.483958042E1,2.564898103E0,-1.173133308E1,2.785880755E0,1.232736832E1
1.484959542E1,2.819589368E0,-1.108468366E1,2.563353853E0,1.172139407E1
1.485960942E1,2.961082631E0,-1.045138810E1,2.326270308E0,1.110905294E1
1.486962442E1,2.955879779E0,-9.683039407E0,2.121483421E0,1.034404028E1
1.487963942E1,2.720732247E0,-8.781749586E0,2.023451488E0,9.413600038E0
1.488965442E1,2.374810092E0,-7.899571390E0,1.938926185E0,8.473628849E0
1.489966842E1,1.990887467E0,-7.183552351E0,1.709852449E0,7.647918193E0
1.490968342E1,1.586484970E0,-6.518970684E0,1.281151554E0,6.830465770E0
1.491969842E1,1.263603329E0,-5.890713674E0,2.446768852E-1,6.029682226E0
1.492971242E1,1.049676513E0,-5.225825028E0,-1.332535862E0,5.494244246E0
1.493972742E1,1.319913916E0,-4.308832510E0,-2.720266224E0,5.263844477E0
1.494974242E1,1.775464056E0,-3.128405970E0,-3.207269121E0,4.819312372E0
1.495975742E1,1.491945725E0,-1.441700016E0,-3.643950881E0,4.193182444E0
1.496977142E1,1.042757356E0,1.784945024E0,-3.802032695E0,4.327681164E0
1.497978642E1,8.228766122E-1,6.872503282E0,-2.067329725E0,7.223730302E0
1.498980142E1,-8.268483335E-1,1.181711408E1,-3.464779329E-1,1.185107211E1
1.499981642E1,-4.081081999E0,1.623330205E1,-9.489142227E-1,1.676531431E1
1.500983042E1,-8.455719366E0,2.162800870E1,-1.644543436E0,2.328034522E1
1.501984542E1,-1.188289759E1,2.626878004E1,9.868228912E-2,2.883161109E1
1.502986042E1,-9.375798630E0,2.400597307E1,4.716187559E0,2.619990016E1
1.503987442E1,-7.649817513E0,1.682005845E1,6.346695338E0,1.953751816E1
1.504988942E1,-7.214784669E0,1.635288463E1,4.460873566E0,1.842197998E1
1.505990442E1,-6.763674320E0,1.825004298E1,2.024917678E0,1.956812844E1
1.506991942E1,-6.322099611E0,1.806045871E1,3.104004662E-1,1.913754061E1
1.507993342E1,-6.088222094E0,1.618230731E1,-9.406430438E-2,1.728994986E1
1.508994842E1,-5.678026468E0,1.326565767E1,2.577427809E-1,1.443205077E1
1.509996342E1,-4.476644968E0,1.061058673E1,3.328621797E-1,1.152109796E1
1.510997842E1,-2.937611908E0,8.665588215E0,2.355711624E-2,9.150002064E0
1.511999242E1,-1.704342033E0,6.568622900E0,-3.177211802E-1,6.793565729E0
1.513000742E1,-6.522566137E-1,4.028047460E0,-7.862527232E-1,4.155574374E0
1.514002242E1,2.642422535E-1,1.326216922E0,-1.345588163E0,1.907690436E0
1.515003742E1,1.009212319E0,-1.217230670E0,-1.575657242E0,2.232231115E0
1.516005142E1,1.500339549E0,-3.486818655E0,-1.573571101E0,4.109142137E0
1.517006642E1,1.739502072E0,-5.368211161E0,-1.702857425E0,5.894343215E0
1.518008142E1,1.952549467E0,-7.089880541E0,-1.462659799E0,7.497881647E0
1.519009542E1,2.132870289E0,-8.733363876E0,-8.071195355E-1,9.026196442E0
1.520011042E1,2.293599722E0,-1.041108792E1,1.189031303E-3,1.066073885E1
1.521012542E1,2.495839562E0,-1.198370710E1,8.822828615E-1,1.227260665E1
1.522014042E1,2.788550593E0,-1.349543454E1,1.674759361E0,1.388191581E1
1.523015442E1,3.058449297E0,-1.484079466E1,2.448949571E0,1.534928833E1
1.524016942E1,3.387296121E0,-1.561085425E1,2.915008034E0,1.623791296E1
1.525018442E1,3.645695982E0,-1.555903272E1,2.788684494E0,1.622194068E1
1.526019942E1,3.979013295E0,-1.466854504E1,2.525941321E0,1.540711329E1
1.527021342E1,4.036903068E0,-1.345435551E1,2.717413952E0,1.430736199E1
1.528022842E1,3.641732447E0,-1.234186075E1,2.958726203E0,1.320370413E1
1.529024342E1,3.249666113E0,-1.128909647E1,2.961106313E0,1.211495685E1
1.530025742E1,2.814273664E0,-1.050895745E1,2.748413551E0,1.122105610E1
1.531027242E1,2.437543553E0,-9.809105961E0,2.381673992E0,1.038424525E1
1.532028742E1,2.149279768E0,-9.103380361E0,1.995171576E0,9.564081092E0
1.533030242E1,1.963060714E0,-8.377312882E0,1.599745139E0,8.751694864E0
1.534031642E1,1.826632455E0,-7.757841899E0,1.167297202E0,8.055015817E0
1.535033142E1,1.727359305E0,-7.256163660E0,6.940143581E-1,7.491150589E0
1.536034642E1,1.537013432E0,-6.852473645E0,2.931302762E-1,7.028849885E0
1.537036142E1,1.281316153E0,-6.579783481E0,-1.977433316E-1,6.706297351E0
1.538037542E1,1.561917893E0,-6.342549663E0,-5.378524773E-1,6.554144415E0
1.539039042E1,2.112778232E0,-6.042823142E0,-8.685465825E-1,6.460179297E0
1.540040542E1,2.470431364E0,-5.525534007E0,-1.287611851E0,6.188093524E0
1.541041942E1,2.349711504E0,-4.530474728E0,-1.616252121E0,5.353374294E0
1.542043442E1,1.526467979E0,-3.074191171E0,-2.088388034E0,4.017725778E0
1.543044942E1,8.921728420E-1,2.776322311E-1,-2.716317307E0,2.872530548E0
1.544046442E1,5.526639131E-1,8.118343209E0,-4.327058866E0,9.216093114E0
1.545047842E1,-1.095868785E0,2.172796100E1,-5.704002138E0,2.249090612E1
1.546049342E1,-8.423795907E0,3.638825445E1,-1.020749606E0,3.736451966E1
1.547050842E1,-1.049948613E1,3.843790235E1,-1.537537781E-1,3.984639489E1
1.548052342E1,-5.550996292E0,2.543112196E1,2.696525359E0,2.616919512E1
1.549053742E1,-9.060464137E0,1.436182116E1,4.578026040E0,1.758727494E1
1.550055242E1,-1.030102695E1,1.643693250E1,3.442471032E0,1.970112974E1
1.551056742E1,-8.159877151E0,2.075082812E1,1.852506677E0,2.237436577E1
1.552058142E1,-6.701288622E0,2.036181988E1,1.365996115E0,2.147968629E1
1.553059642E1,-6.209419087E0,1.685238419E1,1.126498913E0,1.799524210E1
1.554061125E1,-5.794873717E0,1.312709270E1,6.701973331E-1,1.436489779E1
1.555062625E1,-4.269896486E0,1.038024971E1,5.482945812E-1,1.123753651E1
1.556064025E1,-3.326581849E0,7.403225811E0,8.637176594E-1,8.162101899E0
1.557065525E1,-2.814145610E0,4.062733728E0,5.596640535E-1,4.973775700E0
1.558067025E1,-1.937259729E0,1.129744629E0,-5.017918213E-1,2.298062927E0
1.559068525E1,-1.063346133E0,-1.357596590E0,-1.405493765E0,2.224676656E0
1.560069925E1,-1.736829163E-1,-3.680985975E0,-1.639826779E0,4.033466917E0
1.561071425E1,1.028743334E0,-5.839251745E0,-2.044944391E0,6.271919272E0
1.562072925E1,2.149735851E0,-7.947568844E0,-2.146986490E0,8.508511371E0
1.563074325E1,2.975058646E0,-9.929400144E0,-1.284170472E0,1.044476208E1
1.564075825E1,3.571809103E0,-1.149144404E1,1.847834167E-1,1.203516728E1
1.565077325E1,3.904836394E0,-1.290020202E1,1.595843146E0,1.357238648E1
1.566078825E1,4.240031832E0,-1.421660205E1,2.925235691E0,1.512106635E1
1.567080225E1,4.544427354E0,-1.555863744E1,4.139695073E0,1.672901953E1
1.568081725E1,4.637983389E0,-1.667281620E1,4.767730765E0,1.795062524E1
1.569083225E1,4.349981706E0,-1.674250916E1,4.386596970E0,1.784590112E1
1.570084725E1,3.956062388E0,-1.513235788E1,3.375797571E0,1.600108415E1
1.571086125E1,3.534008024E0,-1.317587368E1,2.702302701E0,1.390666386E1
1.572087625E1,3.041084821E0,-1.182832904E1,2.567815571E0,1.248003371E1
1.573089125E1,2.708710664E0,-1.075140172E1,2.665457056E0,1.140326329E1
1.574090525E1,2.358599418E0,-9.825951204E0,2.617680919E0,1.043860918E1
1.575092025E1,1.987191881E0,-9.012077842E0,2.399572173E0,9.535429997E0
1.576093525E1,1.642601721E0,-8.256647986E0,2.324006267E0,8.733348814E0
1.577095025E1,1.524085823E0,-7.559025457E0,2.046103602E0,7.977984921E0
1.578096425E1,1.282386925E0,-7.050921128E0,1.812782156E0,7.392305738E0
1.579097925E1,1.076356773E0,-6.615459682E0,1.611843174E0,6.893539666E0
1.580099425E1,7.971889168E-1,-6.155118334E0,1.422213732E0,6.367392227E0
1.581100925E1,4.696004140E-1,-5.773964658E0,1.363284177E0,5.951280213E0
1.582102325E1,4.423279770E-1,-5.622178541E0,1.158146748E0,5.757243219E0
1.583103825E1,5.156327654E-1,-5.713992691E0,6.985127673E-1,5.779576949E0
1.584105325E1,5.342115623E-1,-5.585719982E0,-8.403530627E-2,5.611836745E0
1.585106725E1,4.842185993E-1,-4.872857856E0,-1.148137046E0,5.029655059E0
1.586108225E1,2.121065784E-1,-3.175756722E0,-2.902118139E0,4.307285648E0
1.587109725E1,1.307253233E-1,9.826906639E-1,-5.517971803E0,5.606316337E0
1.588111225E1,2.937448186E-1,9.429113542E0,-7.685878462E0,1.216828648E1
1.589112625E1,-2.022791338E0,2.389727801E1,-2.227373865E0,2.408594560E1
1.590114125E1,-6.399086391E0,3.606610795E1,3.975447078E0,3.684449252E1
1.591115625E1,-2.422299716E0,3.692288643E1,4.793308825E0,3.731143106E1
1.592117125E1,-8.500106165E-1,2.402594248E1,6.898969535E0,2.501128167E1
1.593118525E1,-5.479523436E0,1.492857657E1,4.795844178E0,1.660986745E1
1.594120025E1,-8.836364919E0,1.552888213E1,6.551168962E0,1.903011666E1
1.595121525E1,-9.952081493E0,1.691967395E1,5.704223163E0,2.044156194E1
1.596122925E1,-9.727899245E0,1.692524986E1,4.814958434E-1,1.952762005E1
1.597124425E1,-6.966859217E0,1.566246294E1,-1.962234503E0,1.725399192E1
1.598125925E1,-5.569316204E0,1.246900495E1,-1.329417104E0,1.372081328E1
1.599127425E1,-4.400229169E0,9.082916275E0,-3.102111626E-1,1.009740639E1
1.600128825E1,-2.347435036E0,6.980125964E0,-3.104052901E-1,7.370818216E0
1.601130325E1,-8.719932237E-1,4.710143293E0,-1.423010999E0,4.997077378E0
1.602131825E1,4.468100139E-1,2.761149371E0,-2.112758060E0,3.505329037E0
1.603133325E1,7.785339600E-1,7.008507764E-1,-1.858420697E0,2.133315360E0
1.604134725E1,5.127309385E-1,-1.690275679E0,-1.476264224E0,2.302016712E0
1.605136225E1,4.805265212E-1,-3.938798484E0,-1.663246632E0,4.302490976E0
1.606137725E1,5.227062884E-1,-6.045729209E0,-1.677731062E0,6.295938774E0
1.607139125E1,5.352131903E-1,-8.086336720E0,-1.169083819E0,8.187921084E0
1.608140625E1,7.523495436E-1,-9.929940426E0,-5.290715674E-1,9.972445208E0
1.609142125E1,8.874620327E-1,-1.147735225E1,1.653197899E-1,1.151279872E1
1.610143625E1,6.995728675E-1,-1.300211197E1,6.067249301E-1,1.303504634E1
1.611145025E1,3.361938500E-1,-1.471351715E1,1.039217159E0,1.475400235E1
1.612146525E1,3.201984993E-1,-1.619085828E1,1.761158843E0,1.628950888E1
1.613148025E1,9.071558936E-1,-1.682811708E1,2.924182023E0,1.710436484E1
1.614149525E1,2.389923390E0,-1.588992080E1,4.176869916E0,1.660263712E1
1.615150925E1,3.817540680E0,-1.423194982E1,5.002996995E0,1.556123361E1
1.616152425E1,4.342932887E0,-1.300132727E1,5.071781301E0,1.461569507E1
1.617153925E1,4.229209513E0,-1.193330761E1,4.454466187E0,1.342133796E1
1.618155325E1,4.008480630E0,-1.089115017E1,3.696954721E0,1.218000588E1
1.619156825E1,3.814553630E0,-9.905899014E0,2.997107619E0,1.102997320E1
1.620158325E1,3.673311797E0,-9.087627962E0,2.214767853E0,1.004904962E1
1.621159825E1,3.476434584E0,-8.302367949E0,1.493260764E0,9.123855473E0
1.622161225E1,3.380163395E0,-7.303193985E0,9.497551985E-1,8.103343871E0
1.623162725E1,3.323057440E0,-6.126231920E0,5.414827211E-1,6.990467210E0
1.624164225E1,3.208062296E0,-5.054575869E0,3.082959071E-1,5.994618193E0
1.625165725E1,2.832794135E0,-4.365002033E0,3.222447324E-1,5.213617461E0
1.626167125E1,2.147795745E0,-4.338668513E0,2.305850954E-1,4.846673139E0
1.627168625E1,2.066113943E0,-4.590449034E0,4.748129144E-1,5.056332313E0
1.628170125E1,2.338349779E0,-5.054600428E0,5.511167398E-1,5.596480576E0
1.629171525E1,2.346638499E0,-5.103327615E0,5.219881041E-1,5.641199923E0
1.630173025E1,2.270101955E0,-3.988327909E0,8.994425391E-1,4.676443016E0
1.631174525E1,1.310739050E0,-2.143196910E0,1.067725259E0,2.729719231E0
1.632176025E1,-3.574242130E-1,1.048583522E0,-3.638710606E-1,1.166053866E0
1.633177425E1,-3.034145930E0,8.276067758E0,-7.568943504E0,1.161844417E1
1.634178925E1,-7.814204965E0,2.079223576E1,-1.160714992E1,2.506201900E1
1.635180425E1,-1.575849878E1,3.871209934E1,-1.108798076E0,4.181131847E1
1.636181925E1,-9.960130770E0,4.317537728E1,1.535488186E0,4.433593500E1
1.637183325E1,-4.705791795E0,2.111453195E1,3.729775435E0,2.195174619E1
1.638184825E1,-5.422967412E0,1.018180690E1,4.446668340E0,1.236327734E1
1.639186325E1,-3.885452582E0,1.528582273E1,2.628087208E0,1.598937024E1
1.640187725E1,-2.643087363E0,1.896874882E1,6.593870008E-1,1.916335392E1
1.641189225E1,-3.014621492E0,1.805603587E1,-1.819888861E0,1.839620531E1
1.642190725E1,-3.259481834E0,1.570220062E1,-2.692884883E0,1.626145612E1
1.643192225E1,-2.934526917E0,1.274783527E1,-2.024219374E0,1.323692624E1
1.644193625E1,-1.992897594E0,9.501576916E0,-1.660737592E0,9.849347900E0
1.645195125E1,-8.979589543E-1,6.357422056E0,-1.810902860E0,6.671020510E0
1.646196625E1,-2.653905004E-1,2.876686260E0,-1.718168359E0,3.361228713E0
1.647198025E1,2.831705676E-1,-4.322524935E-1,-1.200574730E0,1.307060622E0
1.648199525E1,9.092012496E-1,-3.204040874E0,-7.621719888E-1,3.416640305E0
1.649201025E1,1.375611861E0,-5.422318372E0,-5.767209662E-1,5.623740000E0
1.650202525E1,1.613054279E0,-7.096675006E0,-3.058880237E-1,7.284113379E0
1.651203925E1,1.382770023E0,-8.340649086E0,-7.611759156E-2,8.454837313E0
1.652205425E1,1.236625299E0,-9.458530299E0,-6.227825537E-2,9.539230374E0
1.653206925E1,1.530969604E0,-1.076714710E1,3.213275966E-1,1.088019191E1
1.654208400E1,2.037670309E0,-1.216237228E1,1.075604821E0,1.237870452E1
1.655209800E1,2.375404754E0,-1.342765127E1,1.852426132E0,1.376138979E1
1.656211300E1,2.532639306E0,-1.433571217E1,2.510086888E0,1.477252319E1
1.657212800E1,2.842728847E0,-1.475254614E1,2.976339186E0,1.531591721E1
1.658214200E1,3.137797768E0,-1.443506104E1,3.314188676E0,1.513937280E1
1.659215700E1,3.366953657E0,-1.342272558E1,3.222034218E0,1.420871013E1
1.660217200E1,3.519532657E0,-1.236025024E1,2.837886475E0,1.316117380E1
1.661218700E1,3.495940603E0,-1.163512884E1,2.489543865E0,1.240143752E1
1.662220100E1,3.394960943E0,-1.106038029E1,2.126055505E0,1.176341294E1
1.663221600E1,3.341187901E0,-1.043248405E1,1.794304954E0,1.110044100E1
1.664223100E1,3.319888541E0,-9.732650108E0,1.499550029E0,1.039205410E1
1.665224600E1,3.254131924E0,-8.952996991E0,1.192359246E0,9.600377610E0
1.666226000E1,3.116164824E0,-8.234940197E0,8.181226797E-1,8.842739846E0
