"Time (s)","Linear Acceleration x (m/s^2)","Linear Acceleration y (m/s^2)","Linear Acceleration z (m/s^2)","Absolute acceleration (m/s^2)"
1.492362499E-2,-1.258148900E0,8.456173110E-1,-1.551079202E0,2.168837011E0
2.485962497E-2,-1.547169461E0,8.455646861E-1,-1.351860471E0,2.221765000E0
3.479462501E-2,-1.678937343E0,7.005052060E-1,-9.113850385E-1,2.034738517E0
4.473062500E-2,-1.556231183E0,5.568376556E-1,-3.100491947E-1,1.681681948E0
5.466562498E-2,-1.300861056E0,4.473856723E-1,2.072943199E-1,1.391173736E0
6.460162502E-2,-9.635644215E-1,3.151976681E-1,4.357526368E-1,1.103488253E0
7.453762501E-2,-7.926292580E-1,1.829593778E-1,6.082753193E-1,1.015743146E0
8.447262499E-2,-6.556386432E-1,6.438866168E-2,9.196261042E-1,1.131247144E0
9.440862498E-2,-6.744365644E-1,-1.162251055E-2,9.534814829E-1,1.167958347E0
1.043436250E-1,-1.037177358E0,-2.490679979E-2,9.357813764E-1,1.397155684E0
1.142796250E-1,-1.435188849E0,1.679905057E-3,1.425513754E0,2.022834476E0
1.242146250E-1,-1.746052415E0,-1.206877005E-1,1.959659827E0,2.627457173E0
1.341506250E-1,-2.034622009E0,-3.396574482E-1,2.392473069E0,3.158952562E0
1.440856250E-1,-2.056466622E0,-6.786623472E-1,2.330697235E0,3.181475625E0
1.540216250E-1,-1.801853710E0,-1.210513389E0,1.631369659E0,2.715398022E0
1.639566250E-1,-1.749409301E0,-1.530064893E0,5.050357103E-1,2.378359214E0
1.738926250E-1,-1.793792153E0,-1.538073825E0,-6.567423052E-1,2.452482790E0
1.838276250E-1,-1.665030471E0,-1.380378804E0,-1.581688206E0,2.679460710E0
1.937636250E-1,-1.445624667E0,-1.268340597E0,-2.015808300E0,2.786036908E0
2.036986250E-1,-1.112393090E0,-1.194851329E0,-1.827331490E0,2.450352721E0
2.136346250E-1,-5.480959951E-1,-1.105477223E0,-1.328559317E0,1.813162698E0
2.235696250E-1,-4.935174264E-2,-1.170552640E0,-9.075065804E-1,1.481957243E0
2.335056250E-1,3.438298751E-1,-1.490364638E0,-3.370995837E-1,1.566218971E0
2.434406250E-1,6.482113637E-1,-1.854229851E0,-2.052255750E-2,1.964374580E0
2.533766250E-1,7.344507048E-1,-2.176493880E0,-2.151190639E-1,2.307123676E0
2.633116250E-1,6.248985880E-1,-2.328825834E0,-7.128738213E-1,2.514382050E0
2.732476250E-1,2.776694706E-1,-2.269832691E0,-1.367295951E0,2.664345885E0
2.831826250E-1,-4.009383879E-1,-2.276936473E0,-2.084903678E0,3.113200064E0
2.931186250E-1,-1.036728584E0,-2.318795520E0,-2.796441411E0,3.777790808E0
3.030536250E-1,-1.549465078E0,-2.250700601E0,-3.225420633E0,4.227272582E0
3.129896250E-1,-1.849706153E0,-1.846360376E0,-3.109160444E0,4.061691539E0
3.229246250E-1,-1.728668789E0,-1.502818623E0,-3.097308138E0,3.852282089E0
3.328606250E-1,-8.804944906E-1,-1.418120534E0,-3.016407816E0,3.447470451E0
3.427956250E-1,2.806803846E-1,-1.141693707E0,-2.559809271E0,2.816890041E0
3.527316250E-1,7.599778211E-1,-9.316535345E-1,-1.760138211E0,2.131579489E0
3.626666250E-1,7.619003856E-1,-6.917118707E-1,-1.171827040E0,1.559530738E0
3.726026250E-1,4.258917461E0,1.469476922E-1,-2.364327496E-1,4.268005625E0
3.825386250E-1,2.239737656E0,-2.500409746E-1,-4.021545357E-1,2.289251740E0
3.924736250E-1,2.654556969E-1,-8.276371229E-1,-1.717372845E0,1.924790748E0
4.024096250E-1,-3.014260134E-1,-7.199526067E-1,-2.115226169E0,2.254633262E0
4.123446250E-1,-1.049711742E0,1.815336804E-1,-2.183331614E0,2.429359206E0
4.222806250E-1,-7.267814237E-1,2.052144653E-1,-2.748021787E0,2.849903149E0
4.322156250E-1,-7.258271581E-1,-5.494935527E-1,-2.659182116E0,2.810697023E0
4.421516250E-1,-1.012465855E0,-1.344772184E0,-3.556248493E0,3.934514288E0
4.520866250E-1,-1.212621310E0,-1.631953649E0,-6.282372458E0,6.603175513E0
4.620237083E-1,-2.153986777E0,-2.569828475E0,-7.542869600E0,8.254608363E0
4.719587083E-1,-2.466039228E0,-3.611617532E0,-7.352968408E0,8.555189950E0
4.818947084E-1,-2.430874073E0,-3.830605406E0,-4.941164444E0,6.708039401E0
4.918297083E-1,-2.400117719E0,-3.040867889E0,-1.948658291E0,4.336439982E0
5.017657083E-1,-1.334800635E0,-2.020575828E0,5.363364404E-1,2.480337918E0
5.117007083E-1,-6.258450329E-1,-1.591543981E0,1.973629410E0,2.611495222E0
5.216367083E-1,-3.453909355E-1,-1.484049353E0,2.633701705E0,3.042709656E0
5.315717083E-1,-6.054850280E-1,-1.420486026E0,3.063576136E0,3.430727533E0
5.415077083E-1,-2.145146372E0,-1.408369279E0,2.910142858E0,3.879959850E0
5.514427084E-1,-1.504551737E0,-1.252336183E0,2.756231863E0,3.380656139E0
5.613787083E-1,5.439769971E-1,-7.910016856E-1,2.810586410E0,2.970015254E0
5.713137083E-1,2.100181283E0,-8.451226366E-1,1.975528001E0,3.004613882E0
5.812497083E-1,3.137870858E0,-1.496494859E0,1.235040119E0,3.689316262E0
5.911847083E-1,3.948208993E0,-2.064745110E0,4.865865755E-1,4.481996555E0
6.011207083E-1,3.375992283E0,-2.956280898E0,7.147092623E-1,4.543977330E0
6.110557083E-1,1.649598938E0,-4.087728236E0,2.039312353E0,4.856901653E0
6.209917083E-1,1.795137890E0,-4.567170391E0,3.168009746E0,5.841048808E0
6.309277083E-1,3.780023775E0,-3.645480512E0,3.552696310E0,6.340327986E0
6.408627083E-1,5.409094893E0,-1.770717579E0,5.763402833E0,8.100034600E0
6.507987083E-1,4.503162968E0,-2.205306619E0,7.279010485E0,8.838882715E0
6.607337084E-1,3.339140791E0,-2.997404366E0,7.923370727E0,9.105717864E0
6.706697083E-1,2.051478070E0,-2.836156284E0,8.336806880E0,9.041830218E0
6.806047083E-1,2.991529083E-1,-3.092185977E0,7.553141404E0,8.167071179E0
6.905407083E-1,-9.297587442E-1,-2.392384191E0,6.814821085E0,7.282152145E0
7.004757083E-1,-1.989584123E0,-1.707699212E0,6.383688918E0,6.901171334E0
7.104117083E-1,-1.885542861E0,-5.098473841E-1,7.250235168E0,7.508736660E0
7.203467083E-1,-1.404136918E0,8.267553627E-2,7.082705423E0,7.221021523E0
7.302827083E-1,-9.073171306E-1,-4.506653756E-1,2.808498077E0,2.985629767E0
7.402177083E-1,7.005905753E-1,3.388812304E-1,6.024406752E-1,9.841760054E-1
7.501537083E-1,4.363572974E0,3.595696734E0,-2.888387123E-1,5.661557374E0
7.600887083E-1,2.935667124E0,4.003961025E0,-1.146026786E0,5.095411931E0
7.700247084E-1,-5.450224793E-1,1.250029457E0,-1.847913397E0,2.296607730E0
7.799597083E-1,-1.815625949E0,3.636383414E-1,-4.129225341E0,4.525398584E0
7.898957083E-1,-4.429172301E-1,3.150275141E-1,-5.588247149E0,5.614617013E0
7.998307083E-1,2.343913697E0,2.238472027E0,-6.850574470E0,7.578592151E0
8.097667083E-1,4.523632901E0,3.073858464E0,-6.747195697E0,8.685419406E0
8.197017083E-1,5.674592398E0,2.527559538E0,-5.874890524E0,8.550081565E0
8.296377083E-1,5.923708343E0,1.700946847E0,-4.947046743E0,7.902962241E0
8.395727084E-1,4.878811491E0,7.237478882E-1,-4.091601432E0,6.408417499E0
8.495087083E-1,3.366178316E0,9.535335231E-1,-3.835019762E0,5.191123117E0
8.594437083E-1,1.622132227E0,1.798235160E0,-4.006155485E0,4.681265259E0
8.693797083E-1,-4.073638201E-2,6.143774736E-1,-4.703928287E0,4.744055276E0
8.793147083E-1,-1.242902285E0,-1.391649020E0,-4.995980921E0,5.333040264E0
8.892507083E-1,-7.349631402E-1,-2.084889645E0,-4.719598825E0,5.211674272E0
8.991857083E-1,1.243570622E0,-2.087483470E0,-4.661307932E0,5.256600305E0
9.091217083E-1,3.070110399E0,-2.076366159E0,-5.047768541E0,6.262335150E0
9.190577084E-1,4.052197923E0,-1.254723017E0,-4.315386069E0,6.051214323E0
9.289927083E-1,4.274052394E0,-1.171451064E0,-3.623338569E0,5.724369297E0
9.389287083E-1,2.925015251E0,-1.766533311E0,-3.233023475E0,4.704125312E0
9.488637084E-1,2.483134732E0,-1.450964345E0,-2.682457543E0,3.932789608E0
9.587997083E-1,2.947541649E0,-1.076204599E0,-2.286632034E0,3.882641391E0
9.687347083E-1,2.900094126E0,-1.746124189E0,-1.236965023E0,3.604105727E0
9.786707083E-1,1.883344308E0,-3.180881222E0,-1.515174374E-1,3.699722782E0
9.886057083E-1,1.453642954E0,-4.362329271E0,3.166939706E-1,4.609044324E0
9.985417083E-1,2.043029720E0,-5.493461444E0,6.661715251E-1,5.898802724E0
1.008476708E0,3.130068626E0,-5.782631986E0,1.454379996E0,6.734343580E0
1.018412708E0,5.522812128E0,-4.488955988E0,2.067315546E0,7.411205923E0
1.028347708E0,8.115289793E0,-1.733460290E0,3.043768108E0,8.838966981E0
1.038283708E0,8.246729938E0,1.167594826E0,4.818342218E0,9.622279048E0
1.048218708E0,5.980101230E0,2.193290591E-1,5.240977503E0,7.954719426E0
1.058154708E0,3.172542508E0,-1.071577113E0,4.994713830E0,6.013357607E0
1.068089708E0,7.049800801E-1,-1.601412619E0,4.810187398E0,5.118537105E0
1.078025708E0,-6.336042881E-2,-1.046894261E0,5.165031527E0,5.270441425E0
1.087960708E0,1.763084623E0,5.097947592E-1,6.092803388E0,6.363223335E0
1.097896708E0,3.874743406E0,1.876680821E0,6.264671767E0,7.601426163E0
1.107831708E0,6.657389481E0,1.923835691E0,5.157327821E0,8.638287372E0
1.117767708E0,9.116502682E0,2.777104084E0,3.940478682E0,1.031262820E1
1.127702708E0,8.866693257E0,3.584682918E0,3.039968295E0,1.003541769E1
1.137638708E0,6.614928755E0,4.776746002E0,2.015113359E0,8.404478964E0
1.147574708E0,4.224970574E0,6.535614198E0,1.050635310E0,7.852927088E0
1.157509708E0,1.796721316E0,8.001510578E0,1.301555121E-1,8.201787578E0
1.167445708E0,6.953947395E-1,9.254686421E0,-2.551713216E-1,9.284282794E0
1.177380708E0,2.232081605E0,9.595996585E0,-8.334667969E-1,9.887365961E0
1.187316708E0,5.653068797E0,9.266428800E0,-1.610297463E0,1.097346561E1
1.197251708E0,9.215900670E0,8.933649139E0,-2.277547799E0,1.303572538E1
1.207187708E0,1.085347890E1,8.807671462E0,-2.933124754E0,1.428202723E1
1.217122708E0,9.374605798E0,8.631922286E0,-3.251064767E0,1.315152989E1
1.227058708E0,7.342962652E0,6.697276847E0,-3.667573632E0,1.059356947E1
1.236993708E0,5.935491067E0,3.498815972E0,-3.932423265E0,7.933203650E0
1.246929708E0,6.282493495E0,7.448499048E-1,-5.398926585E0,8.317026763E0
1.256864708E0,7.312806807E0,-1.662253482E0,-7.563815496E0,1.065136305E1
1.266800708E0,7.908717020E0,-4.246224326E0,-9.493172128E0,1.306516525E1
1.276735708E0,6.964712119E0,-6.347152591E0,-1.105933364E1,1.452936411E1
1.286671708E0,4.535371771E0,-8.004318995E0,-1.196844119E1,1.509577107E1
1.296606708E0,1.805096868E0,-8.931138929E0,-1.220672692E1,1.523245874E1
1.306542708E0,-4.313350654E-1,-9.023840101E0,-1.214189884E1,1.513411535E1
1.316477708E0,-1.764768621E0,-8.228564394E0,-1.145886336E1,1.421721596E1
1.326413708E0,-2.972171291E0,-7.145130882E0,-1.009421210E1,1.271926946E1
1.336348708E0,-4.229061286E0,-6.245109907E0,-8.602767484E0,1.144089007E1
1.346284708E0,-3.844699827E0,-5.301678033E0,-6.698070899E0,9.367692379E0
1.356219708E0,-2.881726559E0,-4.298426220E0,-5.340018811E0,7.436169500E0
1.366155708E0,-3.635519196E0,-3.567347970E0,-5.442780118E0,7.454315983E0
1.376090708E0,-5.593851705E0,-2.907090611E0,-3.805573184E0,7.363744970E0
1.386026708E0,-8.347077515E0,-1.741028049E0,2.531145635E0,8.894469064E0
1.395961708E0,-9.999225254E0,3.866743246E-1,9.500464776E0,1.379829169E1
1.405897708E0,-8.218166875E0,1.433744295E0,3.847764353E0,9.186902634E0
1.415833708E0,-8.383862933E0,1.120784356E0,5.480001154E0,1.007847845E1
1.425768708E0,-3.888352216E0,-1.382696933E-1,2.867075776E0,4.833065794E0
1.435704708E0,1.712463523E0,-1.629839442E0,7.724101710E-1,2.487071651E0
1.445639708E0,5.109116358E0,-2.517978583E0,-4.010985285E0,6.966440200E0
1.455575708E0,4.675570461E0,-4.118002488E0,-6.650356450E0,9.112965738E0
1.465510333E0,4.997908748E0,-4.136944250E0,-6.366531433E0,9.089891203E0
1.475446333E0,3.607619206E0,-3.501289929E0,-4.292082576E0,6.610288976E0
1.485381333E0,1.322965286E0,-4.313753819E0,-1.172581331E0,4.661936951E0
1.495317333E0,-8.806392092E-1,-3.787498856E0,7.075236189E-1,3.952374308E0
1.505252333E0,-5.142784041E-1,-1.835978937E0,7.549369365E-1,2.050665919E0
1.515188333E0,1.681554264E0,1.440833459E0,2.797530162E-1,2.232014236E0
1.525123333E0,2.343361135E0,7.459310549E-1,-9.017014647E-1,2.619316720E0
1.535059333E0,2.063011411E0,-4.962847674E-1,-2.080302504E0,2.971527075E0
1.544994333E0,4.240672687E-1,-4.842017886E-1,-1.720657226E0,1.837102532E0
1.554930333E0,-1.511943495E0,-4.864883423E-4,-6.551530319E-1,1.647786049E0
1.564865333E0,-5.787889802E-1,5.411308649E-1,3.540652800E-1,8.678603108E-1
1.574801333E0,1.531244277E0,6.242304705E-1,1.868506413E0,2.495133049E0
1.584736333E0,2.496923051E0,-3.576339819E-1,4.197893288E0,4.897431454E0
1.594672333E0,1.032003157E0,-3.069700509E0,5.811450573E0,6.652897827E0
1.604607333E0,-4.600010401E-1,-5.411026229E0,9.705355305E0,1.112136356E1
1.614543333E0,2.371827720E0,-7.649434521E0,9.703652596E0,1.258174427E1
1.624478333E0,2.595593061E0,-9.516749856E0,8.165990415E0,1.280582019E1
1.634414333E0,1.248415625E0,-8.379013837E0,1.159575019E1,1.436063497E1
1.644349333E0,1.013033620E0,-7.269897015E0,1.189819508E1,1.398015328E1
1.654285333E0,1.173128631E0,-7.486167396E0,1.004005285E1,1.257861655E1
1.664220333E0,5.869692349E-1,-7.598065562E0,7.457918912E0,1.066281800E1
1.674156333E0,-1.123873440E0,-4.904250387E0,7.116349717E0,8.715342601E0
1.684091333E0,-5.112928158E-1,-4.636715128E0,3.719899780E0,5.966422873E0
1.694027333E0,1.337342420E0,-4.632927886E0,-1.525047398E-1,4.824496165E0
1.703963333E0,3.329270691E0,-4.157623513E0,-1.319065778E0,5.487240758E0
1.713898333E0,3.766524308E0,-2.900287668E0,-9.294108349E-1,4.843777289E0
1.723834333E0,4.593370888E0,-1.951419931E0,-1.190175603E0,5.130654327E0
1.733769333E0,6.105080202E0,-1.349013462E0,-1.915526213E0,6.539195842E0
1.743705333E0,4.737041654E0,-1.631965636E0,-2.135672713E0,5.446464303E0
1.753640333E0,1.933765433E0,-3.629864354E0,6.384744340E-1,4.162092452E0
1.763576333E0,2.343150051E0,-5.904522459E0,-1.039156056E0,6.436892335E0
1.773511333E0,-2.768054348E-1,-6.747617866E0,-2.066630545E0,7.062430879E0
1.783447333E0,-3.731429905E0,-7.308751178E0,-3.136043018E0,8.784997367E0
1.793382333E0,-2.434828545E0,-6.448528107E0,-4.355278698E0,8.153548757E0
1.803318333E0,2.668199108E0,-5.900516531E0,-4.676346971E0,7.987715744E0
1.813253333E0,5.548097243E0,-6.371030281E0,-4.074985984E0,9.379601304E0
1.823189333E0,7.855482799E0,-6.253053349E0,-3.689596000E0,1.069684088E1
1.833124333E0,8.033605360E0,-6.692986745E0,-3.255703948E0,1.095146085E1
1.843060333E0,6.041778245E0,-8.014710082E0,-3.143260236E0,1.051754472E1
1.852995333E0,3.297694265E0,-9.105387710E0,-3.299235299E0,1.023072951E1
1.862931333E0,1.227424559E0,-9.496247179E0,-3.826154214E0,1.031138873E1
1.872866333E0,8.732739101E-1,-8.920643177E0,-4.763128422E0,1.015026474E1
1.882802333E0,1.269990974E0,-7.170452834E0,-5.543739898E0,9.152121228E0
1.892737333E0,1.009610660E0,-5.222387450E0,-6.080874483E0,8.078965209E0
1.902673333E0,-2.409555344E-1,-3.819826357E0,-6.169263334E0,7.260092496E0
1.912608333E0,-2.094577020E0,-3.539848807E0,-5.945613182E0,7.229667944E0
1.922544333E0,-3.948844293E0,-4.588003144E0,-5.709084538E0,8.320864760E0
1.932479333E0,-4.645964838E0,-5.463344191E0,-5.326747386E0,8.933496333E0
1.942415333E0,-4.684540966E0,-5.408939942E0,-5.336123396E0,8.926128403E0
1.952350333E0,-5.629692214E0,-5.763677652E0,-5.180926598E0,9.578904682E0
1.962286333E0,-3.884338395E0,-4.430944008E0,-3.582708313E0,6.896169112E0
1.972222333E0,-3.892135657E0,-4.084235402E0,1.848619565E1,1.932793647E1
1.982157333E0,-3.710901500E0,-3.586220151E-1,1.737243438E1,1.776797333E1
1.992093333E0,-4.775644679E0,3.479001512E0,3.762668070E0,7.004848651E0
2.002028333E0,-2.799167090E0,2.222982168E0,-4.085899812E-1,3.597767626E0
2.011964333E0,-1.235669426E0,5.851758939E-1,-2.267197058E0,2.647544571E0
2.021899333E0,-1.629959895E0,-1.572528543E0,-1.804953026E0,2.896113034E0
2.031835333E0,-2.790895619E0,-3.087309984E0,-1.875169900E0,4.564739143E0
2.041770333E0,-4.242586480E0,-3.268039818E0,-1.768131940E0,5.639673293E0
2.051706333E0,-5.199987352E0,-3.729862851E0,-6.712451541E-1,6.434463101E0
2.061641333E0,-4.964662650E0,-4.564375130E0,1.301307199E0,6.868391076E0
2.071577333E0,-2.402582028E0,-4.039559458E0,2.001534078E0,5.108481152E0
2.081512333E0,4.248082571E-1,-2.300078291E0,3.185335046E-1,2.360568955E0
2.091448333E0,5.601144353E-1,-9.894237328E-1,-1.869532015E0,2.188112762E0
2.101383333E0,-6.328501435E-1,1.736681521E-2,-3.738514976E0,3.791740383E0
2.111319333E0,-1.751805637E0,4.042343903E-1,-4.238306903E0,4.603854237E0
2.121254333E0,-2.493354496E0,4.446597004E-1,-4.368756530E0,5.049809156E0
2.131190333E0,-3.037953637E0,1.366021843E0,-4.706766526E0,5.766179766E0
2.141125333E0,-3.488316126E0,-1.777179337E-1,-2.754510443E0,4.448287405E0
2.151061333E0,-1.664685339E0,-2.883810507E0,2.132653795E0,3.954206941E0
2.160996333E0,3.612359544E0,-3.248684950E0,4.406288638E0,6.558847074E0
2.170932333E0,6.464228466E0,-2.228670924E0,2.854494907E0,7.409545527E0
2.180867333E0,5.117174991E0,-1.187963601E0,-1.739040288E0,5.533624357E0
2.190803333E0,4.333673236E0,-8.773951739E-1,-3.621237372E0,5.715234563E0
2.200738333E0,4.039071216E0,-8.632881814E-1,-1.104592246E0,4.275451649E0
2.210674333E0,3.231427185E0,-3.231197097E0,1.557656735E0,4.827944784E0
2.220609333E0,8.822425157E-2,-3.416815789E0,2.419015920E0,4.187368108E0
2.230545333E0,-1.180681479E0,-1.441726913E0,2.247158650E0,2.919299102E0
2.240480333E0,2.763540298E-1,-2.080379688E0,9.078661841E-1,2.286607138E0
2.250416333E0,1.269566466E0,-1.675409133E0,7.285040134E-1,2.224750069E0
2.260352333E0,7.590428513E-1,5.163290226E-1,7.995950460E-1,1.217412809E0
2.270287333E0,2.096562149E0,3.315159021E0,8.496887273E-1,4.013455259E0
2.280223333E0,3.621553706E0,4.735690947E0,-1.459020638E-1,5.963531454E0
2.290158333E0,2.545997271E0,3.259891139E0,4.730982184E-3,4.136304476E0
2.300094333E0,1.437486805E0,3.488695611E0,4.137379576E0,5.599578121E0
2.310029333E0,-8.995669971E0,2.224622312E0,1.295338654E0,9.356758246E0
2.319965333E0,-4.994039646E0,2.404428871E0,-8.983486712E-1,5.615045905E0
2.329900333E0,-6.683531213E-1,4.084519284E0,-2.497277977E0,4.833879495E0
2.339836333E0,3.960409793E-1,3.830272408E0,-1.911890999E0,4.299204853E0
2.349771333E0,7.527056390E-1,5.436910683E-1,-1.161420166E0,1.486964209E0
2.359707333E0,1.794659295E0,-2.094703027E0,-1.012044271E0,2.938165476E0
2.369642333E0,5.091519163E0,-1.951592424E0,-7.490698403E-1,5.503942768E0
2.379578333E0,6.214016168E0,4.545467573E-1,1.816086709E-2,6.230645192E0
2.389513333E0,1.943199623E0,-1.461405133E0,-1.224533842E0,2.722354288E0
2.399449333E0,1.636201213E0,-2.944422160E0,-2.254036730E0,4.053080044E0
2.409384333E0,8.706205899E-1,-3.118551072E0,-1.953655322E0,3.781548640E0
2.419320333E0,-3.420386976E0,-3.386982710E0,-1.285106319E0,4.982187992E0
2.429255333E0,1.253841841E-1,-3.464009836E0,-3.629875463E-1,3.485232459E0
2.439191333E0,4.521279396E0,-9.809756756E-1,5.334479159E-1,4.657128658E0
2.449126333E0,3.647489031E0,1.269324099E0,2.153666934E0,4.421949928E0
2.459062333E0,2.757644258E0,2.056097370E0,3.409146581E0,4.842976219E0
2.468997458E0,1.969091094E0,1.436952077E0,3.061392201E0,3.913345527E0
2.478933458E0,9.045967135E-1,-9.020768559E-1,1.123318539E0,1.701141502E0
2.488868458E0,5.181086227E-1,-1.525619840E0,-4.766737908E-1,1.680229253E0
2.498804458E0,2.514555623E0,3.117460567E-1,-2.558978382E-1,2.546695759E0
2.508739458E0,2.351448711E0,1.240490894E0,3.885735002E-1,2.686841652E0
2.518675458E0,1.747850872E0,1.323031359E0,1.474965703E0,2.642142781E0
2.528610458E0,3.334470328E0,8.834593213E-1,1.488245022E0,3.756869173E0
2.538546458E0,4.218324336E0,1.539661928E0,1.958904075E0,4.899196284E0
2.548481458E0,4.722164876E0,1.850519208E0,2.586342766E0,5.693191667E0
2.558417458E0,3.422845730E0,2.151366055E0,3.746213712E0,5.511657280E0
2.568353458E0,1.543742993E0,2.695057708E0,5.107751033E0,5.977925986E0
2.578288458E0,4.841403928E-1,3.177617891E0,5.443916817E0,6.322015319E0
2.588224458E0,-1.046366258E0,3.438632335E0,6.470011947E0,7.401359961E0
2.598159458E0,-1.494881612E0,3.867549577E0,7.717053477E0,8.760452336E0
2.608095458E0,-1.706677703E0,4.133748747E0,8.097574484E0,9.250477826E0
2.618030458E0,-2.020621290E0,4.499631250E0,6.475790166E0,8.140359332E0
2.627966458E0,-1.538248364E0,4.629348221E0,4.544550730E0,6.667084394E0
2.637901458E0,-1.739973503E0,4.729813326E0,2.845017740E0,5.787293653E0
2.647837458E0,-1.082112041E0,4.512798010E0,2.084892569E0,5.087542567E0
2.657772458E0,-1.510574954E0,5.209998370E0,1.324002436E0,5.583807138E0
2.667708458E0,-2.366643286E0,3.549348779E0,4.333473846E-1,4.287967718E0
2.677643458E0,-3.859083393E0,1.601613178E0,-2.210329378E-1,4.184082333E0
2.687579458E0,-6.683602549E0,1.260995910E0,-1.834560695E0,7.044591305E0
2.697514458E0,-8.601185228E0,2.172524790E0,-1.908117352E0,9.074203167E0
2.707450458E0,-8.045537188E0,3.452372707E0,-1.422579621E0,8.869795868E0
2.717385458E0,-6.064026901E0,5.461108800E0,-8.008263235E-1,8.199844778E0
2.727321458E0,-3.041638260E0,6.917500530E0,-4.540707940E-1,7.570307601E0
2.737256458E0,3.831531313E-1,5.681693841E0,-1.662059355E-1,5.697023402E0
2.747192458E0,1.361844884E0,3.598414519E0,1.023200320E0,3.981224364E0
2.757127458E0,-4.645194760E-1,3.997437286E0,2.204988531E0,4.588818761E0
2.767063458E0,-1.703813445E0,4.316784139E0,4.194208957E0,6.255317284E0
2.776998458E0,-1.152501627E0,3.852093632E0,5.344121218E0,6.687788643E0
2.786934458E0,8.218078874E-2,3.330103335E0,5.265386705E0,6.230621081E0
2.796869458E0,3.719989827E-1,2.039132259E0,4.144618721E0,4.634037975E0
2.806805458E0,-1.150307533E0,-2.001715926E0,3.805718780E0,4.451243590E0
2.816740458E0,1.788955629E-3,-7.829848605E-1,-3.424060489E0,3.512443412E0
2.826676458E0,-1.374865172E0,4.271788645E-1,-3.963047472E0,4.216453639E0
2.836611458E0,1.959185618E0,-7.173002805E0,4.121391242E0,8.501543583E0
2.846547458E0,1.046275041E0,-1.142994537E1,3.826602695E0,1.209881113E1
2.856482458E0,-1.693250157E0,-1.396730250E1,-1.166643776E0,1.411785015E1
2.866418458E0,-2.822658279E0,-1.418023821E1,-5.843847656E0,1.559477833E1
2.876353458E0,-2.700352654E0,-1.304033639E1,-7.857331688E0,1.546221002E1
2.886289458E0,-1.431449847E0,-8.927299647E0,-8.330497735E0,1.229401969E1
2.896225458E0,-3.322908701E-1,-6.840849965E0,-6.512606574E0,9.451015282E0
2.906160458E0,7.809327802E-1,-5.230872345E0,-6.334441329E0,8.252092368E0
2.916096458E0,1.645403269E0,-2.465220618E0,-7.126130354E0,7.717927082E0
2.926031458E0,1.408736046E0,-3.997332036E-1,-7.289857070E0,7.435478464E0
2.935967458E0,-4.942827721E-2,1.082617825E-1,-6.386977977E0,6.388086681E0
2.945902458E0,-1.506265849E0,3.741352630E-1,-3.804557523E0,4.108950224E0
2.955838458E0,-2.205290832E0,7.189104867E-1,-5.643755937E-1,2.387186577E0
2.965773458E0,-2.234407627E0,8.485105133E-1,1.497745578E0,2.820600885E0
2.975709458E0,-2.441807781E0,1.495768635E0,1.584562990E0,3.272703610E0
2.985644458E0,-2.320200022E0,9.581785512E-1,2.043256885E0,3.236716388E0
2.995580458E0,-2.241179287E0,2.579132565E0,2.987212376E0,4.538529185E0
3.005515458E0,-2.676160969E0,3.274291077E0,1.256371347E0,4.411495047E0
3.015451458E0,-2.685387875E0,2.278315539E0,-4.899764988E-1,3.555574033E0
3.025386458E0,-1.583994348E0,1.291164619E-1,-1.344693247E0,2.081804286E0
3.035322458E0,-3.443688422E-2,-1.422987757E0,-3.149234337E0,3.455974097E0
3.045257458E0,4.471298566E-1,-1.925750070E0,-4.705839742E0,5.104249809E0
3.055193458E0,7.835230967E-1,-2.085106577E0,-3.720445325E0,4.336276202E0
3.065128458E0,1.098683781E-1,-1.484146124E0,-1.291851959E0,1.970695883E0
3.075064458E0,-3.200029099E-1,-5.622249877E-1,8.128916144E-1,1.038889588E0
3.084999458E0,4.521005747E-1,-8.276312757E-1,1.931049986E0,2.149028270E0
3.094935458E0,1.555742356E-1,-1.900774857E0,2.602595687E0,3.226554309E0
3.104870458E0,-7.051674834E-1,-1.471693894E0,1.641337407E0,2.314548029E0
3.114806458E0,-1.306725814E0,-2.843658847E-1,3.279364121E-1,1.376930862E0
3.124741458E0,-3.667462827E-1,-5.315925944E-1,2.796726170E-1,7.037828465E-1
3.134677458E0,-1.651063666E-2,-1.083820013E0,8.651098815E-1,1.386850218E0
3.144612458E0,-6.889920384E-3,-2.120060062E0,6.138860151E-1,2.207160660E0
3.154548458E0,-1.292527020E-2,-3.148876487E0,1.131944937E-1,3.150936874E0
3.164483458E0,2.277750698E-1,-3.637351713E0,-3.525011498E-1,3.661484129E0
3.174419458E0,1.293223131E0,-1.591502173E0,-5.386083761E-1,2.120236830E0
3.184354458E0,8.878651983E-1,6.412378281E-1,-1.730647194E0,2.048079655E0
3.194290458E0,-3.042119193E-1,1.800514989E0,-2.175007517E0,2.839904368E0
3.204226458E0,-7.781038973E-1,1.527226655E0,-1.195810565E0,2.089935367E0
3.214161458E0,-7.467894262E-1,9.497866273E-1,-5.576068568E-1,1.330681965E0
3.224097458E0,2.379021549E-1,1.152135957E0,-6.189160824E-2,1.178068449E0
3.234032458E0,2.557235911E-1,1.928373715E0,5.622787821E-1,2.024889422E0
3.243968458E0,-1.189692696E0,2.059315678E0,1.358210840E0,2.738774627E0
3.253903458E0,-3.052334864E0,1.800665263E0,1.937890059E0,4.039128791E0
3.263839458E0,-4.583234739E0,1.349152626E0,1.468436995E0,4.998255765E0
3.273774458E0,-4.696140673E0,8.351285756E-1,-9.687549949E-2,4.770803058E0
3.283710458E0,-3.490454161E0,-3.958576691E-1,-1.187087104E-1,3.514835032E0
3.293645458E0,-2.017021598E0,-1.602947513E0,1.424369746E0,2.943916783E0
3.303581458E0,-1.299673779E0,-1.981757040E0,2.438687122E0,3.400545218E0
3.313516458E0,-1.194825894E-1,-2.620212178E0,1.851031424E0,3.210312334E0
3.323452458E0,3.708823473E-1,-3.178076897E0,7.382536608E-1,3.283709023E0
3.333387458E0,-2.228385580E0,-2.249182956E0,1.166325980E0,3.374143232E0
3.343323458E0,-4.096976485E0,-4.392235440E-1,1.411047450E0,4.355363193E0
3.353258458E0,-4.904678403E0,7.320778316E-1,7.562926134E-1,5.016351932E0
3.363194458E0,-5.338076951E0,2.109150327E0,-2.627189661E0,6.312345535E0
3.373129458E0,-5.484660215E0,3.109755106E0,-5.013797972E0,8.055448132E0
3.383065458E0,-6.921597090E0,2.704892725E0,-4.431688358E0,8.652445471E0
3.393000458E0,-9.650685593E0,2.731229753E0,-2.915390149E0,1.044484792E1
3.402936458E0,-1.046335735E1,2.739219389E0,4.453824162E-3,1.081596920E1
3.412871458E0,-5.229523977E0,1.828733068E0,2.412712036E0,6.042628983E0
3.422807458E0,2.406414293E-2,-4.805598503E-1,3.423206503E0,3.456856898E0
3.432742458E0,1.240834710E-1,-2.161300474E0,4.235420133E0,4.756616460E0
3.442678458E0,2.270956599E-1,-2.050790437E0,4.877022535E0,5.295532330E0
3.452613458E0,1.833775999E0,-1.561220613E0,3.046938176E0,3.883809530E0
3.462549458E0,6.485219970E-1,-6.822624779E-1,1.287025667E0,1.594521225E0
3.472483583E0,-5.668758631E-1,9.740636820E-1,5.344483745E-1,1.247310453E0
3.482419583E0,-4.614719072E-1,2.343555847E0,2.553785470E0,3.496717111E0
3.492354583E0,1.510942159E0,2.175768825E0,5.211638514E0,5.846203228E0
3.502290583E0,4.619682189E0,-2.620271820E0,3.922025454E0,6.602239892E0
3.512225583E0,4.838708947E0,-4.258192114E0,2.517736800E0,6.919848477E0
3.522161583E0,5.320134185E0,-4.968223604E0,1.251355459E0,7.385997834E0
3.532097583E0,5.434063089E0,-1.407592038E0,-1.072885720E0,5.715018877E0
3.542032583E0,3.403238554E0,1.452609751E0,-3.714180619E0,5.242827998E0
3.551968583E0,2.583412727E0,2.674236943E0,-4.845447570E0,6.107694057E0
3.561903583E0,1.775224320E0,4.638435963E0,-3.491995779E0,6.071288504E0
3.571839583E0,8.450796595E-1,3.981142851E0,-2.221140002E0,4.636498780E0
3.581774583E0,2.067625741E0,3.959126914E0,-4.039928418E0,6.022523038E0
3.591710583E0,1.915291155E0,4.577761161E0,-3.069591751E0,5.834949098E0
3.601645583E0,-2.526654097E0,6.545021199E0,-1.915203154E0,7.272502083E0
3.611581583E0,-4.351137992E0,6.581019582E0,-3.418647721E-2,7.889447971E0
3.621516583E0,7.185266170E-1,4.043703380E0,-1.796405713E0,4.482732538E0
3.631452583E0,1.828955846E0,4.353560202E0,-2.143421005E0,5.185828721E0
3.641387583E0,2.529615127E0,6.019896210E0,-1.003006376E0,6.606370021E0
3.651323583E0,2.748829288E0,5.803749205E0,6.052987942E-1,6.450267741E0
3.661258583E0,2.906699725E0,4.614493954E0,1.006954855E0,5.545846718E0
3.671194583E0,4.512764096E-2,2.242146417E0,7.434629452E-1,2.362624433E0
3.681129583E0,5.738001359E-1,-9.657612205E-2,-1.802965558E-1,6.091636818E-1
3.691065583E0,-1.652888874E0,6.903737354E-1,-1.623431479E0,2.417475396E0
3.701000583E0,-2.851371909E0,2.808077370E0,4.933706321E0,6.352722120E0
3.710936583E0,3.433336512E0,2.233928740E0,2.617473342E0,4.861008529E0
3.720871583E0,4.190720800E0,-1.751901823E-1,-1.500537039E0,4.454710297E0
3.730807583E0,3.872696881E0,-4.292889492E0,2.690711765E-1,5.787839028E0
3.740742583E0,2.274636763E0,-8.186414155E0,4.310842490E0,9.527576402E0
3.750678583E0,-1.307345034E0,-6.937772827E0,3.546060012E0,7.900404069E0
3.760613583E0,-4.106443419E0,-5.100651344E0,4.515778336E-1,6.563798003E0
3.770549583E0,-5.083396211E0,-6.033959348E0,-1.379024881E0,8.009450173E0
3.780484583E0,-4.171681389E0,-4.824161074E0,-2.030026098E0,6.693015885E0
3.790420583E0,-2.712483580E0,-3.025637646E0,-1.919385522E0,4.494006133E0
3.800355583E0,-2.334527746E0,-2.710051138E0,-1.376931578E0,3.832797613E0
3.810291583E0,-1.439758594E0,-1.484706872E0,-2.665057106E-1,2.085254085E0
3.820226583E0,6.267186069E-1,-1.481145333E0,2.085234338E0,2.633395139E0
3.830162583E0,1.241578037E0,-2.634385244E0,2.647820976E0,3.936045930E0
3.840097583E0,2.313322527E0,-3.434829891E0,2.072425574E0,4.630816910E0
3.850033583E0,1.047220097E0,-1.457584562E0,-9.464906980E-1,2.029055773E0
3.859968583E0,5.060471325E-1,2.024154031E-1,-2.112690378E0,2.181860749E0
3.869904583E0,1.627647029E0,-1.033333983E0,-2.144834861E0,2.883978251E0
3.879840583E0,1.939305377E0,-5.851191759E-2,-2.551431381E0,3.205328545E0
3.889775583E0,9.665514717E-1,1.400162566E0,-1.059927413E0,2.004525649E0
3.899711583E0,1.592488598E0,3.632120794E-1,-6.103312004E-1,1.743687794E0
3.909646583E0,1.501613511E0,-1.636787689E-1,1.405612171E-1,1.517033728E0
3.919582583E0,6.064410478E-1,-2.322302973E0,2.086546161E0,3.180335945E0
3.929517583E0,-4.904261497E-1,-3.267753890E0,2.545586504E0,4.171180161E0
3.939453583E0,-1.296358116E0,-2.740542614E0,1.829883653E0,3.541128686E0
3.949388583E0,-1.520121703E0,-1.755252278E0,1.718511883E0,2.888765072E0
3.959324583E0,-1.792248196E0,-5.892543268E-1,2.261828145E0,2.945376175E0
3.969259583E0,-2.482158832E0,2.525073302E-1,1.983804735E0,3.187530964E0
3.979195583E0,-2.598230156E0,1.323685663E0,7.330104625E-1,3.006700519E0
3.989130583E0,-1.923382824E0,1.405730284E0,-5.098523542E-1,2.436273495E0
3.999066583E0,-2.956320074E-1,-3.890164268E-1,-5.918490288E-1,7.674746491E-1
4.009001583E0,1.071122199E-1,-2.049337989E-1,1.104527342E-1,2.562629433E-1
4.018937583E0,-1.885595778E0,-1.946128786E0,4.928860733E-1,2.754237711E0
4.028872583E0,-8.271509269E-1,-8.046265751E-1,2.085568361E0,2.383526372E0
4.038808583E0,-6.686992764E-1,2.043577897E0,2.555076535E0,3.339428910E0
4.048743583E0,-1.912620732E0,1.935058837E0,3.167015719E0,4.175231650E0
4.058679583E0,-1.637075518E0,1.789010008E0,4.361238180E0,4.990087327E0
4.068614583E0,-1.102113612E0,8.555061221E-2,5.514952886E0,5.624649202E0
4.078550583E0,-1.028481525E0,-8.338907200E-1,6.975359314E0,7.099914474E0
4.088485583E0,-1.750683556E0,-5.826574981E-1,7.121083038E0,7.356235879E0
4.098421583E0,-2.484162673E0,-2.283513129E-2,5.905684301E0,6.406925369E0
4.108356583E0,-3.842545421E0,-2.241440073E0,4.490605488E0,6.320976709E0
4.118292583E0,-3.507378634E0,-5.034560266E0,2.912068931E0,6.791807374E0
4.128227583E0,-1.620240653E0,-6.424153404E0,1.394102511E0,6.770409777E0
4.138163583E0,-1.605095049E0,-4.924501049E0,4.262262069E-2,5.179658037E0
4.148098583E0,-1.255279964E0,-1.985275894E0,6.459652289E-1,2.436045821E0
4.158034583E0,-7.328280294E-1,7.634253395E-1,9.918456495E-1,1.450383729E0
4.167969583E0,-1.444760449E0,2.505219666E0,9.743437636E-1,3.051688729E0
4.177905583E0,-1.821547132E0,4.173760074E-1,-1.247895223E0,2.247104620E0
4.187841583E0,6.036406700E-1,-1.914175506E0,-5.388474687E0,5.750139945E0
4.197776583E0,2.032687750E0,2.765798492E0,-3.186730192E0,4.683664175E0
4.207712583E0,5.722205105E-1,3.853980528E0,9.467226863E-2,3.897379256E0
4.217647583E0,-2.932879464E0,4.952265383E0,-3.357583494E0,6.663338600E0
4.227583583E0,-2.632686336E0,5.301298549E0,-5.063213961E0,7.789155234E0
4.237518583E0,-4.983114123E-2,4.470166546E0,-3.976772642E0,5.983276087E0
4.247454583E0,-5.492526475E-1,5.004283383E0,-3.795694021E0,6.304904737E0
4.257389583E0,-1.422146635E0,3.970752348E0,-4.284160184E0,6.011938435E0
4.267325583E0,-1.250026533E0,3.688558704E0,-2.791249376E0,4.791565999E0
4.277260583E0,-3.762671578E-1,3.458890014E0,-5.004286891E-1,3.515099710E0
4.287196583E0,1.390579272E0,-4.259491950E-1,1.148763868E0,1.853321842E0
4.297131583E0,3.886085250E0,-1.680833595E0,3.365416424E0,5.408593889E0
4.307067583E0,2.623820203E0,-9.601262587E-1,3.845990893E0,4.753727047E0
4.317002583E0,-3.298405579E-1,-1.705759106E0,2.294220404E0,2.877821430E0
4.326938583E0,-1.718815354E-1,-3.084329073E0,3.384922736E0,4.582611812E0
4.336873583E0,1.552837167E0,-3.885624490E0,1.068680548E0,4.318733502E0
4.346809583E0,2.349849498E0,-2.008868825E0,-2.063815841E0,3.717079828E0
4.356744583E0,1.715503491E0,2.348143573E0,-2.950055952E0,4.142409997E0
4.366680583E0,1.213883139E0,3.582660951E0,-3.760075414E0,5.333585931E0
4.376615583E0,2.984140542E0,1.135481333E0,-3.209173560E0,4.526942408E0
4.386551583E0,2.732445974E0,4.158048606E-1,-2.768203452E0,3.911790516E0
4.396486583E0,2.331274648E0,-1.312664831E-1,-3.069700509E0,3.856829474E0
4.406422583E0,1.359381745E0,2.813943297E-1,-2.745612150E0,3.076603253E0
4.416357583E0,1.243000226E0,3.300928652E-1,-1.759573370E0,2.179474548E0
4.426293583E0,1.613078983E0,-1.898119052E0,-1.226305110E0,2.776455288E0
4.436228583E0,1.028223225E0,-2.697196620E0,-1.132050186E0,3.100588691E0
4.446164583E0,1.861081911E0,-3.061997387E0,-8.389884688E-1,3.680129825E0
4.456099583E0,2.107765122E0,-1.936346979E0,-7.815107775E-1,2.966963520E0
4.466036250E0,2.002670484E0,-3.197611860E0,-1.424888979E-1,3.775673948E0
4.475971250E0,3.029616092E0,-4.142448235E0,-1.154918647E-1,5.133399401E0
4.485907250E0,2.980224954E0,-7.174486828E-1,-1.039226223E0,3.236736710E0
4.495842250E0,3.238967170E0,9.833221632E-1,6.837106870E-1,3.453301479E0
4.505778250E0,1.234058957E0,1.189632981E0,-5.792311028E-1,1.809319433E0
4.515713250E0,-1.237705865E0,1.568292820E0,-2.074861451E-1,2.008608642E0
4.525649250E0,8.687921655E-1,1.601207381E-1,3.332679033E-1,9.441959400E-1
4.535585250E0,1.171662149E-1,7.726364583E-1,5.948664844E-1,9.821207425E-1
4.545520250E0,-1.967360318E0,7.620155758E-1,2.758540928E-1,2.127738198E0
4.555456250E0,-1.226533590E0,3.557106864E-1,3.642931930E-1,1.328015162E0
4.565391250E0,-1.847242136E0,7.120692444E-1,1.620544489E-1,1.986355397E0
4.575327250E0,-2.058002393E0,6.568305981E-1,-3.939829787E-1,2.195910488E0
4.585262250E0,-1.015169900E0,5.541675246E-1,-1.089540929E0,1.588952802E0
4.595198250E0,-5.439496322E0,-2.022694566E0,-1.479154941E0,5.988932533E0
4.605133250E0,-8.984022902E0,-5.502428734E-1,-1.514962120E0,9.127461035E0
4.615069250E0,-7.155902622E0,7.391710889E-1,-1.443734847E0,7.337416885E0
4.625004250E0,-2.217335219E0,2.253230399E-1,-2.183335707E-2,2.228861288E0
4.634940250E0,-2.116243877E0,1.803785337E0,1.104750998E0,2.992090316E0
4.644875250E0,-3.461227438E0,2.465305402E0,1.175989673E0,4.409169742E0
4.654811250E0,-2.217363870E0,-1.314252934E0,1.042243678E0,2.780330051E0
4.664746250E0,1.725446096E0,-3.117479863E0,2.917672318E0,4.605285732E0
4.674682250E0,2.575947002E-1,1.723694270E0,1.585615781E-1,1.750033926E0
4.684617250E0,-4.860322595E0,9.706594330E-1,-2.863599021E0,5.724082006E0
4.694553250E0,-2.537478755E0,1.858482531E0,-1.854615183E0,3.651349507E0
4.704488250E0,-4.670564367E0,6.910531819E-2,1.874061853E-2,4.671113171E0
4.714424250E0,-6.651106063E0,1.407379199E0,2.530660316E-1,6.803085365E0
4.724359250E0,1.417222987E0,1.563439046E0,2.765499115E-2,2.110361922E0
4.734295250E0,3.573604199E0,1.834753361E0,-3.172838669E0,5.118971780E0
4.744230250E0,1.125958557E0,4.462712515E0,-4.641582642E0,6.536656262E0
4.754166250E0,6.952532369E-1,5.708251895E0,-4.082166950E0,7.052063794E0
4.764101250E0,1.507347291E0,4.570229362E0,-2.860615772E0,5.598411817E0
4.774037250E0,2.212596928E0,2.418085628E0,-1.500030963E0,3.604554918E0
4.783972250E0,1.746080628E0,2.443388284E0,-1.866366625E0,3.535854669E0
4.793908250E0,-2.163276249E0,4.379000852E0,-1.317511003E0,5.058779283E0
4.803843250E0,3.088348449E0,1.096081624E0,9.961453995E-1,3.425141855E0
4.813779250E0,5.883734438E0,5.853366923E-1,1.637813290E0,6.135420308E0
4.823714250E0,3.583585981E0,2.136905306E0,1.782880957E0,4.537302863E0
4.833650250E0,1.545904416E0,2.276399991E0,1.502660748E0,3.135252255E0
4.843586250E0,-8.097990221E-1,1.977152358E0,2.128240609E0,3.015678032E0
4.853521250E0,-1.568223823E0,1.689395673E0,1.357746863E0,2.675230876E0
4.863456250E0,2.447366729E0,5.909640527E-1,-9.484797746E-2,2.519491726E0
4.873392250E0,1.247258461E0,9.915228832E-1,-9.984775615E-1,1.880353354E0
4.883328250E0,1.050237992E0,6.969296336E-1,4.742866650E-1,1.346721424E0
4.893263250E0,2.145841898E0,-1.696194815E0,1.857210762E0,3.306198136E0
4.903199250E0,2.055694790E0,-2.352486885E0,1.934980484E0,3.674809530E0
4.913134250E0,8.657907897E-1,-1.624190447E0,1.598495151E0,2.437780763E0
4.923070250E0,-2.750859441E0,-1.836996353E-1,7.468408817E-1,2.856351611E0
4.933005250E0,7.269211721E-1,1.304151285E-1,7.402969703E-1,1.045687382E0
4.942941250E0,4.027869413E0,-9.057103157E-1,1.886902777E0,4.539211966E0
4.952876250E0,3.451717234E0,-2.080317707E0,2.112139570E0,4.550077713E0
4.962812250E0,6.153910884E-1,-1.268305514E0,2.514093400E0,2.882355060E0
4.972747250E0,-1.288432800E0,-1.404904658E-1,1.781589453E0,2.203147210E0
4.982683250E0,-1.090322701E0,-2.635667539E-1,1.056388678E0,1.540853032E0
4.992618250E0,9.034968522E-1,-8.368804014E-1,5.152566433E-2,1.232611156E0
5.002554250E0,2.002878937E-1,-1.292167416E0,-7.877870326E-1,1.526571414E0
5.012489250E0,-8.296336547E-1,-1.831766018E0,-1.784779255E-1,2.018790013E0
5.022425250E0,1.665652469E-1,-1.597848156E0,4.382955909E-1,1.665222429E0
5.032360250E0,2.032135481E-1,-1.456019263E0,-7.655560648E-1,1.657517399E0
5.042296250E0,1.054703802E0,-1.049699755E0,1.619621725E-1,1.496830462E0
5.052231250E0,1.403023316E0,-4.782057613E-1,1.027861136E0,1.803788704E0
5.062167250E0,1.670937767E0,-3.859174025E-1,1.703542426E-2,1.715008883E0
5.072102250E0,1.573212959E0,-1.321973598E-1,2.162056227E-1,1.593493028E0
5.082038250E0,9.212647864E-1,3.886293411E-2,2.823737383E-2,9.225163866E-1
5.091973250E0,3.869435889E-1,5.656865394E-1,1.029811621E-2,6.854433988E-1
5.101909250E0,7.478167820E-1,6.022766608E-1,-1.226154033E0,1.557376264E0
5.111844250E0,1.193832159E0,8.163905883E-1,-1.015365344E0,1.767115050E0
5.121780250E0,9.993195605E-1,1.268095014E0,1.381480858E0,2.124898565E0
5.131715250E0,5.523835391E-1,6.559558547E-1,1.915371408E0,2.098583639E0
5.141651250E0,4.490927669E-1,-4.861679149E-1,1.726133144E0,1.848669572E0
5.151586250E0,3.993411478E-1,-1.478003039E0,5.257757112E-1,1.618766949E0
5.161522250E0,1.162397236E-1,-1.653156969E0,-5.851085778E-1,1.757495856E0
5.171457250E0,-2.960147077E-1,-1.095196940E0,-6.210655189E-1,1.293369021E0
5.181393250E0,-6.065422046E-1,-3.164846402E-1,1.858339055E-1,7.089359731E-1
5.191328250E0,-3.484955147E-1,6.442485595E-1,2.525972604E0,2.630027172E0
5.201264250E0,2.445179871E-1,2.116617222E0,4.448554652E0,4.932493892E0
5.211200250E0,-1.090551912E0,1.693401600E0,5.511082613E-1,2.088212817E0
5.221135250E0,-8.351696523E-1,1.244999097E0,5.769329826E-2,1.500286511E0
5.231071250E0,-6.428776798E-1,9.819112301E-1,1.336341376E0,1.778552684E0
5.241006250E0,-2.177489953E-1,4.958912498E-1,2.623561463E0,2.678879898E0
5.250942250E0,4.086180478E-1,-5.126581407E-1,4.364475199E0,4.413437531E0
5.260877250E0,-6.804784924E-1,-1.542093201E0,4.999950596E0,5.276420035E0
5.270813250E0,2.240179414E-1,4.251721001E-1,4.897749453E0,4.921270675E0
5.280748250E0,-6.713395867E-1,-1.331527948E-1,3.699053872E0,3.761838122E0
5.290684250E0,-9.035176098E-1,-1.196088307E0,3.337786576E0,3.658932978E0
5.300619250E0,-7.981697872E-2,-3.699363774E-1,2.899642428E0,2.924234923E0
5.310555250E0,-1.410848352E-1,1.953997384E0,3.194425128E0,3.747314052E0
5.320490250E0,-2.406065506E0,1.337942344E0,2.099682516E0,3.462355788E0
5.330426250E0,-3.379790927E0,4.735835373E-2,1.114110856E0,3.558998809E0
5.340361250E0,-2.557884952E0,-1.400917441E0,3.128352468E-1,2.933123079E0
5.350297250E0,-2.034705332E-1,-2.666040316E0,-1.162313036E0,2.915500440E0
5.360232250E0,1.910632094E0,-2.607535999E0,-9.852703824E-1,3.379425500E0
5.370168250E0,7.851015526E-1,-1.460873621E0,-1.325347588E0,2.122989028E0
5.380103250E0,-1.470710684E-1,5.686709583E-2,-5.057152299E-1,5.297279108E-1
5.390039250E0,-1.010554108E0,2.053167915E0,-5.763294952E-1,2.359846135E0
5.399974250E0,-9.596233982E-1,3.316078788E0,-2.845370911E0,4.473632888E0
5.409910250E0,-3.513379924E-1,3.598201681E0,-3.180395318E0,4.815122854E0
5.419845250E0,3.392648077E-1,9.513677144E-1,-3.294494376E0,3.445851757E0
5.429781250E0,2.730822203E-1,-6.238727671E-1,-2.278390968E0,2.377994224E0
5.439716250E0,5.694325581E-1,-8.622655034E-2,-1.549029753E0,1.652628703E0
5.449652250E0,1.831611067E0,2.517590620E0,-1.980720913E-1,3.119662511E0
5.459587250E0,1.451556375E0,3.538979911E0,5.148800826E-1,3.859597935E0
5.469523208E0,1.069543159E0,3.048159952E0,7.796455157E-1,3.323108302E0
5.479458208E0,4.494675735E-1,2.608958042E0,-1.542144656E0,3.063803732E0
5.489394208E0,-2.897550879E0,5.209892535E-1,-5.775618836E0,6.482669499E0
5.499329208E0,-2.009175219E0,-1.956940287E0,-4.527258759E0,5.325642893E0
5.509265208E0,-3.517395499E-1,-3.289513133E0,-1.160632692E0,3.505950030E0
5.519200208E0,-3.769138598E-1,-2.427432986E0,3.967673205E0,4.666575363E0
5.529136208E0,-1.581978813E0,-1.481255261E0,1.859761902E0,2.855781582E0
5.539071208E0,-1.325841531E-1,-6.446414924E-1,2.165770671E0,2.263559986E0
5.549007208E0,2.080746893E0,-3.396863919E0,3.680237532E-2,3.983659942E0
5.558942208E0,4.723832209E0,-8.323658831E0,-4.953627784E0,1.077665604E1
5.568878208E0,6.504566068E0,-6.072248086E0,-4.583034472E-1,8.910197450E0
5.578814208E0,5.140068594E0,-5.794398338E0,-3.286722257E0,8.414148825E0
5.588749208E0,4.480769302E0,-9.448637395E0,-6.045297099E0,1.207889313E1
5.598685208E0,4.164154269E0,-6.925847431E0,-5.067798178E0,9.538874241E0
5.608620208E0,3.707593145E0,-5.592453051E0,8.774589086E-1,6.766957381E0
5.618556208E0,2.095067016E0,-5.690240132E0,2.297089194E0,6.484192881E0
5.628491208E0,-3.680114740E-1,-5.369439077E0,1.504178539E0,5.588278941E0
5.638427208E0,-1.152743190E0,-3.607180665E0,2.959855886E0,4.806382847E0
5.648362208E0,-2.172537361E0,2.108200740E0,1.316888275E0,3.301306358E0
5.658298208E0,-1.142714338E0,3.750217593E0,-2.818277545E-1,3.930566745E0
5.668233208E0,-4.773859817E-1,3.038621973E0,-6.501700348E-1,3.143857813E0
5.678169208E0,-5.098184404E-1,3.130211005E0,5.032464623E-1,3.211135746E0
5.688104208E0,2.867147112E-1,2.646721115E0,-2.088769273E0,3.383828462E0
5.698040208E0,4.454534892E0,-3.999822950E-1,-5.890616026E0,7.396095193E0
5.707975208E0,5.403285100E0,-3.111717432E0,2.294645058E0,6.644070378E0
5.717911208E0,3.277661119E-1,-2.634871733E0,2.219076666E0,3.460387395E0
5.727846208E0,8.862300244E-1,-2.403219666E0,3.875905833E-1,2.590578098E0
5.737782208E0,5.690077579E-1,-1.543171427E0,8.338550520E-1,1.844034200E0
5.747717208E0,-1.203243253E0,-1.520269053E0,1.636484218E0,2.537142668E0
5.757653208E0,-2.812561600E0,-1.317864175E0,2.538058798E0,4.011110968E0
5.767588208E0,-4.362939428E0,-3.270137215E-1,3.430010323E0,5.559419866E0
5.777524208E0,-5.957778314E0,9.574067187E-1,4.325376622E0,7.424327107E0
5.787459208E0,-7.428261250E0,2.379490496E0,4.547826925E0,9.029051443E0
5.797395208E0,-8.728012505E0,3.701666408E0,3.096338085E0,9.973356807E0
5.807330208E0,-9.703945541E0,4.647873369E0,6.778823286E-2,1.075982719E1
5.817266208E0,-8.797040640E0,4.080341449E0,-1.974017373E0,9.896153543E0
5.827201208E0,-5.719611865E0,2.652036234E0,-2.475413776E0,6.773103383E0
5.837137208E0,-4.013593436E0,1.112868980E0,-1.493294970E0,4.424628742E0
5.847072208E0,-3.481784787E0,-1.118829632E-1,9.157040843E-1,3.601924079E0
5.857008208E0,-2.619869531E0,-2.600707036E-1,2.875771463E0,3.898899157E0
5.866943208E0,-4.626425198E-1,2.045869421E0,2.981884686E0,3.645717497E0
5.876879208E0,1.010079899E0,4.826559602E0,1.437976509E-2,4.931140413E0
5.886814208E0,1.662466029E0,6.995679558E0,-4.825217374E0,8.659448509E0
5.896750208E0,2.707882698E0,9.436603825E0,-7.976572788E0,1.264942030E1
5.906685208E0,2.848118226E0,1.079869868E1,-5.246254030E0,1.233883511E1
5.916621208E0,3.424977332E0,9.434063795E0,-5.941367519E-1,1.005410503E1
5.926557208E0,4.734702475E0,6.532260236E0,7.819925880E-1,8.105513168E0
5.936492208E0,5.507178428E0,4.103257272E0,1.175646734E0,6.967630854E0
5.946428208E0,5.224144539E0,1.712437795E0,9.620380059E-1,5.581186835E0
5.956363208E0,4.155407419E0,-6.140014976E-1,-2.548970872E-1,4.208251558E0
5.966299208E0,3.215284777E0,-1.792364556E0,-1.715226333E0,4.061111704E0
5.976234208E0,3.082757634E0,-2.447028176E0,-2.292673962E0,4.554963822E0
5.986170208E0,2.895082477E0,-1.787716019E0,-1.578654086E0,3.750943860E0
5.996105208E0,2.762461486E0,-8.539010614E-1,-1.569459924E-1,2.895681704E0
6.006041208E0,2.881305852E0,1.354677075E-1,1.807084044E0,3.403796066E0
6.015976208E0,3.255774991E0,1.218770826E0,3.298533048E0,4.792263911E0
6.025912208E0,3.674054101E0,2.058045663E0,3.844087624E0,5.701862428E0
6.035847208E0,3.567086307E0,2.774974528E0,2.977279126E0,5.411910878E0
6.045783208E0,2.300615942E0,3.210165247E0,1.248042573E0,4.141932507E0
6.055718208E0,3.419375700E-1,2.987196296E0,-5.365369999E-1,3.054199563E0
6.065654208E0,-1.139963223E0,1.849763163E0,-1.734997523E0,2.780531661E0
6.075589208E0,-1.582358297E0,4.561880708E-1,-2.457780036E0,2.958487458E0
6.085525208E0,-9.053344859E-1,-5.549779487E-1,-2.687005215E0,2.889226208E0
6.095460208E0,3.091846839E-2,-1.245786132E0,-2.027629909E0,2.379962623E0
6.105396208E0,2.670452625E-1,-1.856590372E0,-1.235727167E0,2.246166204E0
6.115331208E0,4.847118120E-1,-2.281092966E0,-8.360065350E-1,2.477344867E0
6.125267208E0,5.614055005E-1,-2.392100601E0,-4.766451395E-1,2.502900719E0
6.135202208E0,8.173748209E-1,-2.342765889E0,2.668876800E-1,2.495572608E0
6.145138208E0,1.143425214E0,-2.391573182E0,1.222439077E0,2.919143848E0
6.155073208E0,1.292122246E0,-2.345768434E0,1.847835044E0,3.253721530E0
6.165009208E0,1.376819896E0,-2.082457788E0,1.834186181E0,3.097822205E0
6.174944208E0,1.222977167E0,-1.724922770E0,1.571510835E0,2.634516658E0
6.184880208E0,8.451388626E-1,-1.416284509E0,1.169026663E0,2.021569896E0
6.194815208E0,4.215255571E-1,-1.029457864E0,9.272583286E-1,1.448197258E0
6.204751208E0,1.330918376E-1,-5.964949340E-1,9.568018243E-1,1.135336679E0
6.214686208E0,2.549052733E-1,-2.852727878E-1,9.448504078E-1,1.019362328E0
6.224622208E0,4.206347338E-1,-1.624163550E-1,8.479817788E-1,9.604091570E-1
6.234557208E0,5.625791828E-1,-1.778021336E-1,7.750819100E-1,9.740949147E-1
6.244493208E0,5.792673556E-1,-3.748152941E-1,6.567006437E-1,9.525192436E-1
6.254428208E0,6.621878171E-1,-7.526079905E-1,1.890521765E-1,1.020123629E0
6.264364208E0,5.789615462E-1,-1.223170856E0,-2.246700521E-1,1.371794463E0
6.274299208E0,4.097823016E-1,-1.491559224E0,-3.666604748E-1,1.589688761E0
6.284235208E0,2.183976342E-1,-1.530450810E0,-1.422219725E-1,1.552483268E0
6.294171208E0,1.456883847E-1,-1.469491248E0,2.480562834E-1,1.497384904E0
6.304106208E0,5.753693093E-2,-1.218818189E0,6.347430333E-1,1.375400667E0
6.314042208E0,-1.092511314E-1,-9.900710195E-1,1.232422321E0,1.584626521E0
6.323977208E0,2.095028132E-1,-6.449092948E-1,1.703057692E0,1.833086176E0
6.333913208E0,5.064858198E-2,-3.743761683E-1,2.419320852E0,2.448639659E0
6.343848208E0,-2.932089213E-1,-2.908761746E-1,3.316581649E0,3.342199014E0
6.353784208E0,-4.757119238E-1,-1.838557559E-1,3.563563360E0,3.599873414E0
6.363719208E0,-9.433924046E-1,-2.454479867E-1,3.990150486E0,4.107497395E0
6.373655208E0,-1.114099234E0,-6.006195599E-1,3.777777275E0,3.984163915E0
6.383590208E0,-1.250391107E0,-1.265010608E0,3.564490728E0,3.983632000E0
6.393526208E0,-9.027764753E-1,-2.030954928E0,2.705345299E0,3.501239276E0
6.403461208E0,-4.569210558E-1,-2.706427034E0,1.982481949E0,3.385817304E0
6.413397208E0,1.581674392E-1,-2.755440150E0,1.499856862E0,3.141184166E0
6.423332208E0,5.485021208E-1,-1.994171848E0,1.775753639E0,2.725963485E0
6.433268208E0,8.545065406E-1,-1.176104279E0,2.393928441E0,2.800767052E0
6.443203208E0,1.183721739E0,-9.985699475E-1,2.926016294E0,3.310575547E0
6.453139208E0,1.141479406E0,-1.262493382E0,3.281894796E0,3.696985018E0
6.463074208E0,7.625120044E-1,-1.680186893E0,3.132659819E0,3.635658138E0
6.473010208E0,4.631722775E-1,-1.945225391E0,2.848645352E0,3.480403816E0
6.482945208E0,2.110915200E-1,-2.008246096E0,2.615742567E0,3.304500142E0
6.492881208E0,-1.651151739E-1,-1.667013116E0,2.167139650E0,2.739103870E0
6.502816208E0,-4.992653856E-1,-1.008549975E0,1.882132764E0,2.192911927E0
6.512752208E0,-8.456181881E-1,-1.492209435E-2,1.663240492E0,1.865921146E0
6.522687208E0,-1.149183844E0,1.153258038E0,8.353469691E-1,1.829872172E0
6.532623208E0,-1.821127009E0,2.400739278E0,-2.100249696E-1,3.020622974E0
6.542558208E0,-2.401569290E0,3.868939460E0,-1.576777276E0,4.818968165E0
6.552494208E0,-2.323399179E0,5.414225825E0,-2.971661706E0,6.598696714E0
6.562429208E0,-1.573697840E0,6.549032389E0,-4.174018521E0,7.923937199E0
6.572365208E0,-3.058520633E-1,7.170472130E0,-4.905373052E0,8.693210042E0
6.582300208E0,8.207964653E-1,7.147624719E0,-4.916976267E0,8.714292947E0
6.592236208E0,1.518400137E0,6.408982219E0,-4.285821670E0,7.858044250E0
6.602171208E0,2.064794373E0,5.532679304E0,-3.442970677E0,6.835785483E0
6.612107208E0,2.110592105E0,4.389389600E0,-2.413967141E0,5.435860323E0
6.622042208E0,1.898365512E0,2.624986430E0,-1.254013165E0,3.473743570E0
6.631978208E0,1.295205922E0,8.008463502E-1,-2.657395792E-1,1.545810719E0
6.641914208E0,6.724942656E-1,-8.276073021E-1,5.259169945E-1,1.189021055E0
6.651849208E0,8.463796417E-1,-1.882086571E0,9.588384095E-1,2.275517404E0
6.661785208E0,1.023213184E0,-2.804490688E0,5.461115232E-1,3.034859310E0
6.671720208E0,-9.238917942E-1,-2.735625106E0,-9.540594801E-1,3.040962061E0
6.681656208E0,-1.727891694E0,-2.663687396E0,-1.693297520E0,3.598346390E0
6.691591208E0,-7.680148190E-1,-3.212405900E0,-2.029426466E0,3.876592603E0
6.701527208E0,-1.830312985E-1,-3.008113541E0,-2.171286349E0,3.714395232E0
6.711462208E0,1.936188519E-2,-2.698123988E0,-2.104477817E0,3.421852542E0
6.721398208E0,3.671905249E-1,-2.535564376E0,-1.963595588E0,3.227944117E0
6.731333208E0,8.144393724E-1,-2.347284617E0,-1.931170439E0,3.146819955E0
6.741269208E0,7.815721732E-1,-1.954390901E0,-2.112011370E0,2.981793233E0
6.751204208E0,6.529205650E-1,-1.462772797E0,-2.047206971E0,2.599435689E0
6.761140208E0,4.158522230E-1,-1.175262280E0,-1.671262580E0,2.085016333E0
6.771075208E0,2.188732687E-1,-1.256470749E0,-1.147558172E0,1.715667220E0
6.781011208E0,2.957223469E-1,-1.481893192E0,-5.174122193E-1,1.597239664E0
6.790946208E0,7.024271858E-1,-1.789029889E0,2.961205423E-2,1.922214548E0
6.800882208E0,1.393939959E0,-1.947446748E0,2.650960931E-1,2.409542152E0
6.810817208E0,1.848546942E0,-2.074455289E0,2.323049077E-1,2.788271169E0
6.820753208E0,1.796015849E0,-2.157430787E0,2.691333032E-1,2.820037813E0
6.830688208E0,1.493406360E0,-2.268022685E0,4.090270606E-1,2.746177815E0
6.840624208E0,1.171533510E0,-2.230745516E0,6.375277698E-1,2.599068675E0
6.850559208E0,6.277401155E-1,-2.106188713E0,8.803886560E-1,2.367524600E0
6.860495208E0,4.244435370E-2,-1.891656125E0,1.133580987E0,2.205713098E0
6.870430208E0,-4.504922980E-1,-1.701670148E0,1.381856103E0,2.237889830E0
6.880366208E0,-1.019430766E0,-1.594997638E0,1.570497805E0,2.459617838E0
6.890301208E0,-1.580680439E0,-1.542539928E0,1.619313285E0,2.738641195E0
6.900237208E0,-2.288835264E0,-1.331913865E0,1.407765700E0,2.999094143E0
6.910172208E0,-3.206317779E0,-7.487078977E-1,1.488813956E0,3.613530713E0
6.920108208E0,-3.962578233E0,-1.758286983E-1,1.943663599E0,4.417099747E0
6.930043208E0,-4.924652492E0,1.751545143E-1,2.345456192E0,5.457476158E0
6.939979208E0,-6.040922213E0,4.702646577E-1,2.498172309E0,6.553987711E0
6.949914208E0,-6.760844268E0,6.946287543E-1,2.044573678E0,7.097309761E0
6.959850208E0,-7.165224838E0,1.016404540E0,1.183423823E0,7.333076920E0
6.969785208E0,-7.287735116E0,1.676868013E0,2.874926832E-1,7.483690366E0
6.979721208E0,-6.904823182E0,2.417871035E0,6.936288804E-2,7.316248679E0
6.989657208E0,-5.818856657E0,2.581938059E0,1.193783335E0,6.476929487E0
6.999592208E0,-4.765841530E0,2.140632906E0,2.207733506E0,5.671828802E0
7.009528208E0,-4.224232655E0,1.817993487E0,2.666651934E0,5.316039351E0
7.019463208E0,-3.622734551E0,2.094466799E0,3.212232238E0,5.275360912E0
7.029399208E0,-2.443789988E0,3.411273798E0,3.100866753E0,5.217688478E0
7.039334208E0,-8.327759483E-1,5.544257376E0,1.060082364E0,5.705793569E0
7.049270208E0,6.251011209E-1,7.776217359E0,-1.336888383E0,7.915022323E0
7.059205208E0,2.016229154E0,9.469285668E0,-3.822619864E0,1.040888917E1
7.069141208E0,3.658221011E0,1.027468758E1,-5.066141077E0,1.202570461E1
7.079076208E0,6.003273160E0,8.183434998E0,-3.212476652E0,1.064555791E1
7.089012208E0,7.643903639E0,3.226560840E0,-1.609129189E0,8.451582955E0
7.098947208E0,7.800110836E0,-1.921845299E-1,-1.046046123E0,7.872285338E0
7.108883208E0,6.365342109E0,-1.477668579E0,-1.166070457E0,6.637831341E0
7.118818208E0,4.307249084E0,-1.949404396E0,-7.678253692E-1,4.789794147E0
7.128754208E0,2.974534736E0,-2.390670957E0,-5.175154227E-1,3.851102015E0
7.138689208E0,2.679062357E0,-2.987208576E0,-9.632600740E-1,4.126579717E0
7.148625208E0,2.814443818E0,-2.984202522E0,-3.467436889E-1,4.116647894E0
7.158560208E0,2.697897701E0,-2.015651595E0,5.667837694E-1,3.415076456E0
7.168496208E0,2.312718363E0,-1.122133309E0,8.136005893E-1,2.696255794E0
7.178431208E0,1.862060150E0,-1.482327640E-2,1.436871386E-1,1.867654606E0
7.188367208E0,1.723936930E0,1.498709199E0,-1.033863741E0,2.507381510E0
7.198302208E0,1.680933436E0,2.944190025E0,-1.882936464E0,3.878046138E0
7.208238208E0,1.508871222E0,3.610275596E0,-2.398357999E0,4.589433880E0
7.218173208E0,1.741633089E0,3.546976563E0,-1.606847898E0,4.265710811E0
7.228109208E0,2.174460218E0,2.809481871E0,-1.193533659E-1,3.554674507E0
7.238044208E0,2.181802859E0,1.261137997E0,1.481324843E0,2.923192784E0
7.247980208E0,1.637044674E0,-6.813386178E-1,2.499945770E0,3.064941505E0
7.257915208E0,1.417152820E0,-2.399779165E0,1.981080810E0,3.419348378E0
7.267851208E0,1.351305863E0,-3.697550552E0,7.745710096E-1,4.012214834E0
7.277786208E0,9.174361758E-1,-4.619193361E0,1.019102445E-1,4.710522492E0
7.287722208E0,2.012868905E-1,-4.993078364E0,-2.638006425E-1,5.004092199E0
7.297657208E0,-1.463349771E-1,-4.865633036E0,-6.612654188E-1,4.912542185E0
7.307593208E0,4.593981922E-2,-4.350690388E0,-8.205421114E-1,4.427629916E0
7.317528208E0,1.195810419E-1,-3.540945160E0,-1.148928467E0,3.724597814E0
7.327464208E0,5.064565837E-3,-2.695048352E0,-1.177336872E0,2.940991904E0
7.337399208E0,-6.980559535E-2,-1.827606894E0,-7.205819133E-1,1.965771623E0
7.347335208E0,9.943219453E-2,-8.127723312E-1,-4.505805910E-2,8.200706387E-1
7.357271208E0,1.893638331E-1,8.673058033E-2,3.248292017E-1,3.858689740E-1
7.367206208E0,-3.124660682E-1,8.457798636E-1,2.770372769E-1,9.432540878E-1
7.377142208E0,-1.082133164E0,1.419992813E0,2.500298649E-2,1.785501869E0
7.387077208E0,-1.690029511E0,1.714081448E0,-1.751241088E-1,2.413491954E0
7.397013208E0,-2.007943795E0,1.695871464E0,-1.634109664E-1,2.633347955E0
7.406948208E0,-1.973188530E0,1.127192320E0,-8.980855465E-2,2.274225380E0
7.416884208E0,-1.657785040E0,1.978440499E-1,-3.465811363E-1,1.705142807E0
7.426819208E0,-1.245737308E0,-7.146332484E-1,-8.933051553E-1,1.691317895E0
7.436755208E0,-9.436774564E-1,-1.376844454E0,-1.178117767E0,2.043083275E0
7.446690208E0,-8.060053486E-1,-1.670365325E0,-1.086717016E0,2.149585730E0
7.456626208E0,-9.613655761E-1,-1.681056374E0,-8.512284453E-1,2.115363838E0
7.466561208E0,-1.197084673E0,-1.619095768E0,-7.290004420E-1,2.141477169E0
7.476497708E0,-1.438421482E0,-1.544786428E0,-4.803826797E-1,2.164760723E0
7.486432708E0,-1.624230208E0,-1.335843778E0,4.806352794E-2,2.103547592E0
7.496368708E0,-1.517550975E0,-8.448179966E-1,8.502054749E-1,1.933785861E0
7.506303708E0,-1.045048588E0,-3.416066176E-1,1.758187434E0,2.073654910E0
7.516239708E0,-5.862386253E-1,-4.882483542E-2,2.291672187E0,2.365971472E0
7.526174708E0,-3.925463909E-1,1.480772281E-1,2.766523547E0,2.798155119E0
7.536110708E0,3.914972177E-2,2.430377644E-1,3.028969390E0,3.038956337E0
7.546045708E0,2.175790058E-1,-2.103149915E-1,3.753961565E0,3.766138666E0
7.555981708E0,-1.194480725E-1,-1.157629416E0,3.869062251E0,4.040299050E0
7.565916708E0,-4.030979839E-1,-2.218841754E0,3.575491095E0,4.227278473E0
7.575852708E0,-1.172514746E-2,-3.080156500E0,3.251075292E0,4.478503332E0
7.585787708E0,4.314891395E-1,-3.404274096E0,2.895482719E0,4.489886989E0
7.595723708E0,6.042085809E-1,-3.018599353E0,2.856088858E0,4.199315852E0
7.605658708E0,4.673626846E-1,-1.845666019E0,3.653954297E0,4.120229719E0
7.615594708E0,8.336784661E-2,-1.644359833E-1,4.935341202E0,4.938783471E0
7.625529708E0,-6.665016004E-1,1.156512598E0,6.011819451E0,6.158223679E0
7.635465708E0,-1.763181102E0,1.860903279E0,6.787359052E0,7.255343652E0
7.645400708E0,-2.520626494E0,1.711522706E0,7.203700102E0,7.821519229E0
7.655336708E0,-2.932390929E0,4.300247043E-1,6.492816088E0,7.137261279E0
7.665271708E0,-2.771555661E0,-1.657057062E0,4.886619862E0,5.857167623E0
7.675207708E0,-2.269601433E0,-3.549782642E0,3.019187583E0,5.183390891E0
7.685142708E0,-1.917572739E0,-4.551193752E0,1.138722371E0,5.068248061E0
7.695078708E0,-1.571917216E0,-4.539491134E0,-5.279193735E-1,4.832866888E0
7.705013708E0,-1.515297458E0,-3.755203514E0,-1.942416827E0,4.491176121E0
7.714949708E0,-7.441321591E-1,-2.515032463E0,-3.060168378E0,4.030353764E0
7.724885708E0,1.056930641E-1,-5.037656951E-1,-3.939933429E0,3.973414945E0
7.734820708E0,5.035590691E-1,2.879603435E0,-4.440080282E0,5.316013600E0
7.744756708E0,1.157587170E-1,8.306632909E0,-5.087952361E0,9.741704655E0
7.754691708E0,-1.030158653E0,1.459020405E1,-5.459480351E0,1.561221338E1
7.764627708E0,-1.511954312E0,1.853909190E1,-4.296776136E0,1.909047458E1
7.774562708E0,-1.890217710E-1,1.686497559E1,-2.720165067E0,1.708398164E1
7.784498708E0,1.349748165E0,1.204004502E1,-1.451352600E0,1.220208706E1
7.794433708E0,1.865654434E0,7.802388911E0,-1.721019754E0,8.204867347E0
7.804369708E0,9.461506824E-1,4.530579393E0,-3.447719785E0,5.771318954E0
7.814304708E0,3.465944387E-1,1.791913151E0,-4.951633884E0,5.277287046E0
7.824240708E0,-8.830147867E-1,-6.837073249E-1,-5.079713634E0,5.201025036E0
7.834175708E0,-1.556835932E0,-2.535857322E0,-4.252234679E0,5.189972084E0
7.844111708E0,-1.456660118E0,-3.465300316E0,-3.775440727E0,5.327674696E0
7.854046708E0,-1.424592087E0,-3.139785236E0,-3.325778149E0,4.790460755E0
7.863982708E0,-8.141512509E-1,-2.238357421E0,-2.420047076E0,3.395543264E0
7.873917708E0,-1.762877047E-2,-2.047516581E0,-9.598543632E-1,2.261405608E0
7.883853708E0,-8.560312021E-1,-1.571156201E0,-4.258246493E-1,1.839197613E0
7.893788708E0,-1.285788689E0,-1.470575906E0,5.764185190E-3,1.953427570E0
7.903724708E0,-3.670706570E-1,-1.836409877E0,-2.986868852E-1,1.896406064E0
7.913659708E0,1.213422963E-1,-2.040214579E0,-1.193094533E0,2.366574327E0
7.923595708E0,4.126672447E-1,-2.414124724E0,-2.084617749E0,3.216197071E0
7.933530708E0,1.042881317E0,-2.529720084E0,-2.397229486E0,3.637828247E0
7.943466708E0,1.745239213E0,-2.479886019E0,-2.582165515E0,3.982872497E0
7.953401708E0,2.039920464E0,-2.213548855E0,-2.576859167E0,3.962483716E0
7.963337708E0,2.049069894E0,-1.921023765E0,-2.301458526E0,3.631216199E0
7.973272708E0,1.770680741E0,-1.665579963E0,-1.724302088E0,2.980383296E0
7.983208708E0,1.609477683E0,-1.618013449E0,-1.159447900E0,2.559825261E0
7.993143708E0,1.596084343E0,-1.717171701E0,-8.489508086E-1,2.493367474E0
8.003079708E0,1.637057245E0,-1.753019811E0,-6.869285560E-1,2.494976097E0
8.013014708E0,1.423633289E0,-1.940489146E0,-5.690393329E-1,2.473061995E0
8.022950708E0,1.087835003E0,-2.178538066E0,-3.581606698E-1,2.461237934E0
8.032885708E0,5.131262103E-1,-2.214864478E0,-1.017427218E-1,2.275802001E0
8.042821708E0,-6.901877940E-2,-2.153873926E0,8.575818837E-3,2.154996525E0
8.052756708E0,-7.653727546E-1,-1.972373428E0,7.163657784E-2,2.116880770E0
8.062692708E0,-1.448292460E0,-1.767789878E0,2.292377508E-1,2.296776447E0
8.072627708E0,-2.044600283E0,-1.523977357E0,5.480817425E-1,2.608311886E0
8.082563708E0,-2.472250433E0,-1.273439369E0,8.577438515E-1,2.910222422E0
8.092499708E0,-2.770686765E0,-1.039279432E0,1.117860163E0,3.163292309E0
8.102434708E0,-2.986395813E0,-9.191916561E-1,1.346350348E0,3.402371601E0
8.112370708E0,-3.291263205E0,-9.477108657E-1,1.527405872E0,3.750138406E0
8.122305708E0,-3.613927183E0,-1.074107203E0,1.664417829E0,4.121221017E0
8.132241708E0,-3.977504128E0,-1.268775045E0,1.815434160E0,4.552596006E0
8.142176708E0,-4.444858042E0,-1.532328351E0,2.108765288E0,5.152832641E0
8.152112708E0,-4.692228009E0,-1.572898087E0,2.549109451E0,5.566773848E0
8.162047708E0,-4.684585990E0,-9.160096014E-1,2.801653911E0,5.534770467E0
8.171983708E0,-4.944851698E0,2.793010265E-1,2.754907176E0,5.667369842E0
8.181918708E0,-5.379757658E0,1.532651117E0,2.487233630E0,6.121857809E0
8.191854708E0,-5.572543867E0,2.400236417E0,2.556383972E0,6.584032125E0
8.201789708E0,-5.017122114E0,2.585085615E0,2.645414847E0,6.233169471E0
8.211725708E0,-4.476909555E0,1.787700232E0,2.481963535E0,5.422059965E0
8.221660708E0,-4.480528689E0,9.532937872E-1,1.559682210E0,4.839061373E0
8.231596708E0,-4.544435540E0,1.472713063E0,4.097494841E-1,4.794650434E0
8.241531708E0,-4.108333240E0,3.491546128E0,-1.715280419E0,5.657869148E0
8.251467708E0,-2.482999662E0,5.805182943E0,-4.478127822E0,7.740740605E0
8.261402708E0,-2.458289328E-1,7.673792852E0,-6.592024627E0,1.011940301E1
8.271338708E0,2.062544510E0,9.048942783E0,-6.782607604E0,1.149526952E1
8.281273708E0,5.316865007E0,8.679371856E0,-2.467540208E0,1.047326616E1
8.291209708E0,8.185906616E0,4.958918345E0,2.009709070E0,9.779512709E0
8.301144708E0,8.559367695E0,6.107738346E-1,1.036878273E0,8.643548842E0
8.311080708E0,7.420761026E0,-7.293898666E-1,-1.125213914E0,7.540942258E0
8.321015708E0,6.002508345E0,-8.614568335E-1,-1.086696551E0,6.160610659E0
8.330951708E0,4.808722671E0,-7.850647151E-1,-5.332485259E-1,4.901478789E0
8.340886708E0,4.554111220E0,-1.357187285E0,-1.098340988E-1,4.753309359E0
8.350822708E0,4.270075118E0,-1.536471688E0,3.956015611E-1,4.555303212E0
8.360757708E0,3.200664984E0,-8.393169361E-1,7.173463565E-1,3.385748817E0
8.370693708E0,1.994767680E0,5.238777781E-1,2.992920721E-1,2.084015779E0
8.380628708E0,1.260185778E0,2.230450816E0,-7.340442502E-1,2.664920261E0
8.390564708E0,9.910969135E-1,3.924861061E0,-1.653539962E0,4.372756779E0
8.400499708E0,5.751042111E-1,4.995241833E0,-1.638460285E0,5.288453265E0
8.410435708E0,-1.444170173E-1,5.088485627E0,-5.126829913E-1,5.116286359E0
8.420370708E0,-4.061201173E-1,4.096451697E0,3.855092669E-1,4.134545616E0
8.430306708E0,-1.746868832E-1,2.487433020E0,3.166164950E-1,2.513580025E0
8.440242708E0,-4.712177539E-1,5.451441014E-1,3.096480757E-1,7.842896108E-1
8.450177708E0,-1.185773088E0,-1.622324601E0,7.473820415E-1,2.143962416E0
8.460113708E0,-1.284964377E0,-3.173609625E0,3.004144451E-1,3.437030745E0
8.470048208E0,-1.277410798E0,-4.296956815E0,-5.196286064E-1,4.512829501E0
8.479984208E0,-1.332564806E0,-5.125433598E0,-9.214326015E-1,5.375391760E0
8.489919208E0,-9.958325735E-1,-5.591098251E0,-9.282729667E-1,5.754455046E0
8.499855208E0,-4.488607787E-1,-5.622750399E0,-6.737357756E-1,5.680732166E0
8.509790208E0,-1.400256121E-1,-4.819181001E0,-8.996309656E-1,4.904431523E0
8.519726208E0,7.178796226E-1,-3.535161095E0,-9.192220616E-1,3.722591076E0
8.529661208E0,1.412812724E0,-2.402060748E0,-6.718240285E-1,2.866580395E0
8.539597208E0,1.742748007E0,-1.280406911E0,-4.220087564E-1,2.203339253E0
8.549532208E0,1.936277397E0,-2.834092802E-1,-2.031810960E-1,1.967428152E0
8.559468208E0,1.863773969E0,4.594753754E-1,8.651715696E-2,1.921524459E0
8.569403208E0,1.793671701E0,1.053240244E0,1.852140641E-1,2.088271398E0
8.579339208E0,1.457494223E0,1.270274856E0,1.051573496E-1,1.936219432E0
8.589274208E0,7.638893891E-1,8.974558014E-1,2.398169719E-1,1.202691188E0
8.599210208E0,5.771359724E-1,2.262615180E-1,2.459069932E-1,6.668961347E-1
8.609145208E0,4.650141504E-1,-3.945601720E-1,2.742905474E-1,6.686936472E-1
8.619081208E0,4.341221407E-1,-8.690365791E-1,1.475743675E-1,9.825806852E-1
8.629016208E0,2.631586182E-1,-1.201242628E0,1.296853960E-1,1.236549478E0
8.638952208E0,1.993745586E-1,-1.150892254E0,3.131581593E-1,1.209285420E0
8.648887208E0,2.479909408E-1,-1.097380291E0,3.563983190E-1,1.180153706E0
8.658823208E0,7.633043021E-2,-9.054536229E-1,9.900809598E-1,1.343850031E0
8.668758208E0,-1.958425115E-1,-6.310250813E-1,1.450611027E0,1.593994760E0
8.678694208E0,-3.990666211E-1,-4.798938525E-1,1.964891331E0,2.061637752E0
8.688629208E0,-5.584175733E-1,-3.430362618E-1,2.687779094E0,2.766524990E0
8.698565208E0,-6.247311383E-1,-3.035704798E-1,3.132949841E0,3.209021461E0
8.708500208E0,-7.890747356E-1,-5.106472832E-1,3.222726236E0,3.356987337E0
8.718436208E0,-7.347415307E-1,-1.253609122E0,3.814706535E0,4.082078747E0
8.728371208E0,-6.928149480E-1,-2.082101108E0,4.169000441E0,4.711231500E0
8.738307208E0,-6.807778698E-1,-2.741302752E0,4.069465628E0,4.953660241E0
8.748242208E0,-3.205715516E-1,-3.091318250E0,3.699218178E0,4.831483186E0
8.758178208E0,-3.844365951E-1,-2.909641752E0,3.250872393E0,4.379723500E0
8.768113208E0,-7.987755588E-1,-1.949974499E0,3.118037102E0,3.763322775E0
8.778049208E0,-1.059267847E0,-3.213547862E-1,3.287588230E0,3.468941285E0
8.787984208E0,-1.451965973E0,1.340055528E0,4.250748024E0,4.687516695E0
8.797920208E0,-1.402054432E0,2.248902290E0,5.150569609E0,5.792381672E0
8.807856208E0,-9.548336515E-1,1.359256614E0,5.465593615E0,5.712442508E0
8.817791208E0,-6.703473142E-1,-6.960648304E-1,5.305168821E0,5.392465854E0
8.827727208E0,-1.854464909E-1,-2.105958332E0,4.589526343E0,5.053038982E0
8.837662208E0,2.875877005E-1,-2.988676811E0,3.397295444E0,4.533928992E0
8.847598208E0,4.008114302E-1,-3.555652077E0,1.998111702E0,4.098263275E0
8.857533208E0,2.917944798E-1,-3.775112699E0,7.714781249E-1,3.864168527E0
8.867469208E0,1.109211328E-1,-3.568123019E0,-2.621640799E-1,3.579460208E0
8.877404208E0,1.146092275E-1,-2.695271131E0,-1.276899167E0,2.984642898E0
8.887340208E0,8.009669490E-2,-7.581879884E-1,-2.316383982E0,2.438626511E0
8.897275208E0,-2.435438409E-1,2.550824440E0,-3.879121217E0,4.649042948E0
8.907211208E0,-4.609722626E-1,7.101064510E0,-5.749169540E0,9.148254643E0
8.917146208E0,-8.307753235E-1,1.103008236E1,-6.327773749E0,1.274337573E1
8.927082208E0,-2.384512085E-1,1.250484370E1,-5.505972147E0,1.366542002E1
8.937017208E0,1.371723024E0,1.183699344E1,-4.475975754E0,1.272911610E1
8.946953208E0,1.683119418E0,1.045978938E1,-3.552652748E0,1.117414097E1
8.956888208E0,6.219449401E-1,8.876378585E0,-2.786009978E0,9.324095875E0
8.966824208E0,-1.411080779E-1,6.916228761E0,-2.766590498E0,7.450379504E0
8.976759208E0,-9.702100745E-1,4.719086024E0,-3.000363057E0,5.675672556E0
8.986695208E0,-1.510945668E0,2.547936500E0,-3.081156959E0,4.274162541E0
8.996630208E0,-2.009500909E0,5.212208033E-1,-2.923800784E0,3.585857785E0
9.006566208E0,-2.251893433E0,-1.048037392E0,-2.791871227E0,3.736837079E0
9.016501208E0,-2.294715809E0,-2.272653095E0,-2.709880984E0,4.215937344E0
9.026437208E0,-1.622886226E0,-3.563455771E0,-2.266257118E0,4.524146114E0
9.036372208E0,-1.970914109E0,-3.087019377E0,-1.418215552E0,3.927534394E0
9.046308208E0,-2.657223592E0,-2.857219709E0,-8.273833537E-1,3.988621929E0
9.056243208E0,-1.211993026E0,-3.150198542E0,-1.076942518E0,3.542948368E0
9.066179208E0,3.217708156E-2,-3.433428313E0,-8.517431465E-1,3.537644942E0
9.076114208E0,5.893437892E-1,-3.326444147E0,-4.004810625E-1,3.401902681E0
9.086050208E0,1.165874867E0,-3.260764128E0,-3.229610163E-1,3.477952087E0
9.095985208E0,1.900532490E0,-2.985166143E0,-4.083543384E-1,3.562301772E0
9.105921208E0,2.298853591E0,-2.713678166E0,-6.228486273E-1,3.610639478E0
9.115856208E0,2.443152349E0,-2.377403040E0,-1.099322151E0,3.581835815E0
9.125792208E0,2.345869006E0,-1.924834980E0,-1.607180020E0,3.433819843E0
9.135727208E0,2.028438579E0,-1.707816741E0,-1.620001794E0,3.107347245E0
9.145663208E0,2.079016117E0,-1.637122734E0,-1.376593901E0,2.982866009E0
9.155598208E0,2.223245292E0,-1.642929604E0,-1.223857904E0,3.023221044E0
9.165534208E0,2.405523177E0,-1.591118596E0,-1.158783949E0,3.108211766E0
9.175470208E0,2.353329761E0,-1.540991001E0,-1.065355675E0,3.007955608E0
9.185405208E0,2.171303014E0,-1.473855025E0,-9.113353372E-1,2.778009631E0
9.195341208E0,2.053495944E0,-1.448451211E0,-6.749964353E-1,2.602013969E0
9.205276208E0,1.849254456E0,-1.430958096E0,-4.475040784E-1,2.380681208E0
9.215212208E0,1.659344493E0,-1.542074490E0,-2.551917869E-1,2.279592228E0
9.225147208E0,1.351548230E0,-1.778528289E0,-3.665297896E-2,2.234096895E0
9.235083208E0,9.373358586E-1,-2.009053597E0,2.990415189E-1,2.237033906E0
9.245018208E0,3.184051582E-1,-2.192770189E0,6.565513936E-1,2.310991709E0
9.254954208E0,-3.146179166E-1,-2.238166802E0,1.083092034E0,2.506284785E0
9.264889208E0,-9.109038126E-1,-2.117415951E0,1.386361675E0,2.689831735E0
9.274825208E0,-1.664589737E0,-1.923507078E0,1.480689250E0,2.943327900E0
9.284760208E0,-2.554087771E0,-1.678678311E0,1.535041459E0,3.420186763E0
9.294696208E0,-3.422453674E0,-1.256278376E0,1.699873006E0,4.022560471E0
9.304631208E0,-4.649239864E0,-9.257574946E-1,2.057665886E0,5.167828088E0
9.314567208E0,-5.461349705E0,-8.796650630E-1,2.275026480E0,5.981295571E0
9.324502208E0,-5.721527413E0,-6.312466908E-1,1.918085539E0,6.067404755E0
9.334438208E0,-5.583793325E0,1.011182392E-1,1.290463538E0,5.731864351E0
9.344373208E0,-5.476505688E0,1.227743964E0,5.492239961E-1,5.639247893E0
9.354309208E0,-5.223638170E0,2.295799298E0,-2.281934381E-2,5.705927696E0
9.364244208E0,-4.549664412E0,2.651628098E0,4.349685252E-2,5.266162722E0
9.374180208E0,-3.619383804E0,2.239085984E0,5.776587135E-1,4.295012777E0
9.384115208E0,-3.296505818E0,1.460595294E0,1.008718667E0,3.744035600E0
9.394051208E0,-3.562455897E0,7.850717318E-1,1.600363628E0,3.983540308E0
9.403986208E0,-3.880467830E0,5.499850112E-1,2.775764194E0,4.802643122E0
9.413922208E0,-2.980216767E0,1.721807958E0,4.176822554E0,5.412223321E0
9.423857208E0,-1.469274023E0,3.758119521E0,2.589413724E0,4.794506431E0
9.433793208E0,-6.778013447E-1,5.453153663E0,-9.216010013E-1,5.571862161E0
9.443728208E0,1.391826483E0,7.404706911E0,-5.055385709E0,9.073245839E0
9.453664208E0,4.921400270E0,9.436960505E0,-7.243300370E0,1.287407490E1
9.463599208E0,7.812916238E0,9.634586454E0,-4.244158504E0,1.311029358E1
9.473534750E0,8.606928363E0,6.788475870E0,-1.139834000E0,1.102097283E1
9.483469750E0,8.583013251E0,4.244371051E0,1.513969848E-1,9.576310517E0
9.493405750E0,6.292414466E0,3.108962808E0,6.607277673E-1,7.049587984E0
9.503340750E0,3.895989557E0,1.796724824E0,9.186934733E-1,4.387590730E0
9.513276750E0,3.371150789E0,3.546757293E-1,2.684982955E-1,3.400374075E0
9.523211750E0,3.004233329E0,-1.357465612E0,-3.697951671E-1,3.317360283E0
9.533147750E0,2.408460818E0,-2.257456766E0,9.808207244E-2,3.302486133E0
9.543083750E0,2.192605005E0,-1.971081194E0,4.096220148E-1,2.976653822E0
9.553018750E0,2.361969607E0,-1.182133927E0,1.186019987E-1,2.643937873E0
9.562954750E0,2.469851612E0,-1.760023606E-1,-3.785148275E-1,2.504878698E0
9.572889750E0,2.160840299E0,1.005777225E0,-7.728896427E-1,2.505629067E0
9.582825750E0,1.613867773E0,1.978818229E0,-5.619910991E-1,2.614598395E0
9.592760750E0,1.154188476E0,2.487526576E0,1.748899278E-1,2.747822045E0
9.602696750E0,5.722591022E-1,2.526702336E0,1.124399105E0,2.824177495E0
9.612631750E0,1.668415278E-2,1.972917219E0,2.008896307E0,2.815731714E0
9.622567750E0,-4.451382950E-1,8.270103014E-1,2.142022204E0,2.338878634E0
9.632502750E0,-4.209134267E-1,-7.589311695E-1,1.211715284E0,1.490435695E0
9.642438750E0,-2.868370642E-1,-2.165835575E0,-1.252268940E-2,2.184782840E0
9.652373750E0,-5.194337480E-1,-2.961792483E0,-1.391435889E0,3.313324609E0
9.662309750E0,-4.427007370E-1,-3.592807624E0,-2.084374798E0,4.177184323E0
9.672244750E0,-3.722410575E-1,-4.153505319E0,-1.760080909E0,4.526373233E0
9.682180750E0,-2.580776802E-1,-4.458313655E0,-1.340330932E0,4.662579944E0
9.692115750E0,8.482555747E-3,-4.185420592E0,-8.890071595E-1,4.278802544E0
9.702051750E0,3.522020647E-1,-3.467885370E0,-5.742211354E-1,3.532705075E0
9.711986750E0,4.501958442E-1,-2.756019609E0,-3.312868667E-1,2.812129330E0
9.721922750E0,4.032754469E-1,-1.968745816E0,-2.658647096E-1,2.027134731E0
9.731857750E0,3.342195377E-1,-1.219917465E0,-1.771431524E-1,1.277216120E0
9.741793750E0,4.425306561E-1,-6.112579840E-1,6.249182492E-2,7.572152487E-1
9.751728750E0,6.874693503E-1,-2.611191094E-1,9.189454883E-2,7.411085649E-1
9.761664750E0,7.184491414E-1,-3.808174610E-2,-5.115845919E-2,7.212742724E-1
9.771599750E0,5.902722540E-1,5.456270814E-2,-1.023797759E-1,6.015646611E-1
9.781535750E0,2.890557171E-1,-7.454790652E-2,3.687531933E-2,3.007829568E-1
9.791470750E0,2.029916462E-1,-2.213217902E-1,9.195565224E-2,3.140776739E-1
9.801406750E0,-1.215805703E-1,-4.337078655E-1,4.670662308E-1,6.488722614E-1
9.811341750E0,-2.760897722E-1,-4.657272184E-1,6.250577053E-1,8.269368412E-1
9.821277750E0,-4.742264387E-1,-5.210793006E-1,5.986426163E-1,9.245470971E-1
9.831212750E0,-5.858626859E-1,-5.317305887E-1,5.083040115E-1,9.403964450E-1
9.841148750E0,-7.243747097E-1,-5.227498502E-1,5.772321591E-1,1.063570915E0
9.851083750E0,-8.308191776E-1,-4.295464021E-1,1.012634109E0,1.378476861E0
9.861019750E0,-9.778664187E-1,-3.732985264E-1,1.536591994E0,1.859217437E0
9.870954750E0,-8.614673585E-1,-2.342113924E-1,1.968446438E0,2.161426003E0
9.880890750E0,-7.225810763E-1,-2.104576635E-1,2.339426690E0,2.457505458E0
9.890825750E0,-7.004365012E-1,-2.508549070E-1,2.768179479E0,2.866418864E0
9.900761750E0,-5.033288715E-1,-4.313871056E-1,2.859300148E0,2.935137497E0
9.910697750E0,-4.113828672E-1,-8.598851019E-1,3.256446544E0,3.393093330E0
9.920632750E0,-2.411514527E-1,-1.426464511E0,3.670432920E0,3.945254472E0
9.930568750E0,2.469921998E-1,-2.111917815E0,3.460185757E0,4.061291355E0
9.940503750E0,5.611031629E-1,-2.568963087E0,3.227991069E0,4.163452227E0
9.950439750E0,6.432267585E-1,-2.534927030E0,3.039057591E0,4.009422246E0
9.960374750E0,5.928590987E-1,-1.999585201E0,2.807157018E0,3.497135029E0
9.970310750E0,3.576513773E-1,-1.119375177E0,2.971270820E0,3.195209787E0
9.980245750E0,-4.056798220E-2,-3.099369282E-1,3.655219635E0,3.668560649E0
9.990181750E0,-1.440095760E-1,3.177961707E-1,4.506706381E0,4.520191983E0
1.000011675E1,-1.275274810E-1,4.845868278E-1,5.108338678E0,5.132856096E0
1.001005275E1,-6.502688527E-2,3.038762891E-1,4.914244448E0,4.924060092E0
1.001998775E1,-4.973031331E-2,-1.148767376E-1,4.111060381E0,4.112965746E0
1.002992375E1,-2.202324539E-2,-6.974126136E-1,3.178381537E0,3.254071077E0
1.003985875E1,-1.189510866E-1,-9.767697734E-1,2.286869869E0,2.489578749E0
1.004979475E1,-4.372284740E-1,-6.936961234E-1,1.395955348E0,1.618973250E0
1.005972975E1,-6.698093703E-1,2.064301014E-2,6.066135406E-1,9.039085762E-1
1.006966575E1,-6.604152337E-1,7.883537740E-1,1.215928495E-1,1.035584267E0
1.007960075E1,-5.349304409E-1,1.648325999E0,-4.553356929E-1,1.791775591E0
1.008953675E1,-8.566406281E-1,2.967263723E0,-1.599652899E0,3.478128314E0
1.009947175E1,-1.792798711E0,4.820017152E0,-2.847364812E0,5.878280271E0
1.010940775E1,-2.718500365E0,6.632889647E0,-4.059847835E0,8.238193598E0
1.011934275E1,-1.664215662E0,7.657568582E0,-4.713248456E0,9.144543803E0
1.012927875E1,1.586440238E0,7.681877797E0,-4.234285773E0,8.913877670E0
1.013921375E1,3.785518696E0,7.298460079E0,-3.286666124E0,8.854368726E0
1.014914975E1,4.213605925E0,6.614186743E0,-2.290540313E0,8.169976505E0
1.015908475E1,3.519854254E0,5.844552830E0,-1.546215780E0,6.995638283E0
1.016902075E1,2.664484372E0,4.810172780E0,-1.857367760E0,5.804054974E0
1.017895575E1,1.759336850E0,3.415880234E0,-2.462951313E0,4.563949288E0
1.018889175E1,7.872618064E-1,1.622507619E0,-3.014343749E0,3.512631544E0
1.019882675E1,2.084339422E-1,-1.357302475E-1,-3.166119926E0,3.175875123E0
1.020876275E1,-4.511781764E-1,-1.584554511E0,-2.740503145E0,3.197613522E0
1.021869775E1,-5.720505027E-1,-3.005475277E0,-2.057288156E0,3.686808644E0
1.022863375E1,-1.393636196E0,-2.918744112E0,-1.755441728E0,3.680063138E0
1.023856875E1,-1.521038693E0,-2.964913142E0,-1.304496563E0,3.578544387E0
1.024850475E1,-8.140364993E-1,-3.402877196E0,-5.987928897E-1,3.549757958E0
1.025843975E1,-1.078067376E0,-3.629105385E0,-6.578442129E-1,3.842576502E0
1.026837575E1,-7.795279866E-1,-4.295271063E0,-9.150053421E-1,4.460297318E0
1.027831075E1,-2.147226226E-1,-4.166765635E0,-9.569845498E-1,4.280637930E0
1.028824675E1,-1.537259308E-1,-3.612365391E0,-6.374231046E-1,3.671392596E0
1.029818275E1,2.921739641E-1,-3.337211795E0,-6.986618713E-1,3.422057364E0
1.030811775E1,9.120451891E-1,-3.176643745E0,-1.386961892E0,3.584209145E0
1.031805375E1,1.449005235E0,-2.708454849E0,-1.704244969E0,3.512804400E0
1.032798875E1,1.924597876E0,-1.979141580E0,-1.505586694E0,3.144498318E0
1.033792475E1,2.311968019E0,-1.322920847E0,-1.390143069E0,3.004631998E0
1.034785975E1,2.497284702E0,-8.900286680E-1,-1.267998243E0,2.938775503E0
1.035779575E1,2.554108821E0,-7.106893015E-1,-1.019268799E0,2.840327452E0
1.036773075E1,2.201448919E0,-7.719651979E-1,-7.659071901E-1,2.455386209E0
1.037766675E1,1.690484717E0,-1.092330635E0,-5.758715120E-1,2.093454750E0
1.038760175E1,1.398437637E0,-1.387186425E0,-5.933836305E-1,2.057186947E0
1.039753775E1,1.115105833E0,-1.621973183E0,-5.925501099E-1,2.055571370E0
1.040747275E1,8.010010090E-1,-1.855370643E0,-5.348541713E-1,2.090471675E0
1.041740875E1,3.719943050E-1,-2.041077628E0,-2.761546397E-1,2.092997618E0
1.042734375E1,8.788072765E-3,-2.201076159E0,5.494131535E-2,2.201779289E0
1.043727975E1,-5.373459622E-1,-2.289517635E0,4.300130099E-1,2.390720157E0
1.044721475E1,-1.199022879E0,-2.173588398E0,8.720072570E-1,2.631071843E0
1.045715075E1,-1.655683697E0,-2.053601194E0,1.201835243E0,2.898788423E0
1.046708575E1,-2.089601039E0,-1.988963149E0,1.351523087E0,3.185752904E0
1.047702271E1,-2.641844537E0,-1.951018227E0,1.758565018E0,3.725367848E0
1.048695771E1,-3.388236353E0,-1.905653774E0,2.262317849E0,4.497748764E0
1.049689371E1,-3.817401809E0,-1.711872954E0,2.501862195E0,4.874667170E0
1.050682871E1,-3.897386456E0,-9.691683930E-1,2.472998584E0,4.716421372E0
1.051676471E1,-4.185983094E0,5.141924500E-2,2.149561604E0,4.705923235E0
1.052669971E1,-4.633292168E0,1.115896084E0,1.638446251E0,5.039556181E0
1.053663571E1,-4.982459235E0,2.088647650E0,1.238837886E0,5.542749169E0
1.054657071E1,-5.055715492E0,2.717723855E0,1.229964736E0,5.870186993E0
1.055650671E1,-5.143658785E0,2.772194762E0,1.575708259E0,6.051871281E0
1.056644171E1,-5.235039071E0,2.304884702E0,2.123364032E0,6.101377088E0
1.057637771E1,-5.476083519E0,1.479585296E0,2.693585379E0,6.279495645E0
1.058631271E1,-6.057289739E0,2.093437690E-1,3.067325078E0,6.792868829E0
1.059624871E1,-6.061753503E0,-5.533062297E-1,2.598395924E0,6.618358157E0
1.060618371E1,-4.715306384E0,7.302119851E-1,2.017320975E0,5.180435093E0
1.061611971E1,-3.000974968E0,3.350216002E0,-1.178902464E0,4.649689134E0
1.062605571E1,-1.268004090E0,5.992756943E0,-4.882023951E0,7.832951424E0
1.063599071E1,1.480924601E0,9.116103902E0,-6.928693271E0,1.154570390E1
1.064592571E1,5.409868480E0,1.214056450E1,-6.448408824E0,1.477301458E1
1.065586171E1,9.127683728E0,1.275741067E1,-1.474829755E0,1.575567390E1
1.066579771E1,1.157720749E1,9.222437857E0,1.424301918E0,1.486989339E1
1.067573271E1,1.178838670E1,4.706736120E0,1.321674513E0,1.276190619E1
1.068566871E1,9.042990317E0,2.184964741E0,3.193544537E-2,9.303266344E0
1.069560371E1,6.124492958E0,1.446419889E-1,1.391611013E-1,6.127781091E0
1.070553971E1,3.949190156E0,-1.336768808E0,9.843009871E-1,4.283912017E0
1.071547471E1,3.751831717E0,-2.366448866E0,1.502923872E0,4.683492461E0
1.072541071E1,3.320480572E0,-3.039685582E0,1.372271055E0,4.706209463E0
1.073534571E1,2.719727111E0,-2.891196710E0,3.502259982E-1,3.984795129E0
1.074528171E1,2.456507389E0,-1.418428098E0,-1.383471104E0,3.156003663E0
1.075521671E1,2.092640129E0,5.207091719E-1,-2.365989567E0,3.201279023E0
1.076515271E1,1.856648260E0,1.883405119E0,-1.948094912E0,3.284726988E0
1.077508771E1,1.884768251E0,2.522339728E0,-6.941776416E-1,3.224349805E0
1.078502371E1,1.677717467E0,2.629487032E0,9.471340379E-1,3.259754720E0
1.079495871E1,1.025615951E0,2.209907209E0,2.298532579E0,3.349452189E0
1.080489471E1,7.280721965E-1,1.399440435E0,2.860651440E0,3.266779655E0
1.081482971E1,8.897547260E-1,1.576958978E-1,2.351066011E0,2.518738346E0
1.082476571E1,4.498894501E-1,-1.436663809E0,9.307001460E-1,1.769916998E0
1.083470071E1,-1.379540898E-1,-2.489939137E0,-9.334135464E-1,2.662722120E0
1.084463671E1,-3.355347227E-1,-3.255042043E0,-2.396895610E0,4.056228645E0
1.085457171E1,-1.741090322E-1,-3.642175666E0,-2.565940661E0,4.458677945E0
1.086450771E1,-3.236887023E-2,-3.818926470E0,-2.197834755E0,4.406327807E0
1.087444271E1,1.087054400E-1,-3.914480499E0,-1.408946545E0,4.161743002E0
1.088437871E1,3.414528358E-1,-3.459768850E0,-7.596702576E-1,3.558607795E0
1.089431371E1,6.850798126E-1,-2.813202454E0,-1.936634369E-1,2.901886960E0
1.090424971E1,8.460872810E-1,-1.955681382E0,9.112110838E-2,2.132804822E0
1.091418471E1,6.917519242E-1,-1.140583613E0,3.027758431E-1,1.367890681E0
1.092412071E1,3.028121690E-1,-4.398386711E-1,6.187311642E-1,8.173013641E-1
1.093405571E1,1.447109860E-1,6.716638148E-2,6.729841161E-1,6.916358961E-1
1.094399171E1,2.932976528E-1,3.223663545E-1,6.761734799E-1,8.044589203E-1
1.095392671E1,1.483366983E-1,8.883090019E-3,6.435618040E-1,6.604956328E-1
1.096386271E1,-1.979889147E-2,-4.454601842E-1,5.069721620E-1,6.751648279E-1
1.097379771E1,-1.672482017E-1,-8.372593009E-1,4.540772259E-1,9.670373442E-1
1.098373371E1,-3.292154174E-1,-1.223591271E0,5.667235431E-1,1.388068429E0
1.099366971E1,-3.834264155E-1,-1.391339702E0,6.295566992E-1,1.574542353E0
1.100360471E1,-3.607980564E-1,-1.437697012E0,5.382502341E-1,1.576978520E0
1.101354071E1,-2.730281335E-1,-1.366093764E0,4.713306051E-1,1.470683199E0
1.102347571E1,-4.588520257E-1,-1.237833334E0,7.303216204E-1,1.508690231E0
1.103341171E1,-5.984367577E-1,-9.114791787E-1,1.173224232E0,1.601679102E0
1.104334671E1,-7.547585964E-1,-6.013165480E-1,1.683616285E0,1.940568454E0
1.105328271E1,-6.908274794E-1,-3.450547206E-1,2.097463790E0,2.235097250E0
1.106321771E1,-6.407536787E-1,-3.269897479E-1,2.577256193E0,2.675768498E0
1.107315371E1,-1.742955583E-1,-3.807993346E-1,2.795647359E0,2.826841211E0
1.108308871E1,-1.017874530E-1,-6.411928046E-1,3.268958416E0,3.332803328E0
1.109302471E1,-3.348215085E-1,-9.321175110E-1,3.918402811E0,4.041636932E0
1.110295971E1,-1.318965206E-1,-1.123227907E0,3.860794873E0,4.023030534E0
1.111289571E1,1.328299920E-1,-1.449078033E0,3.359280356E0,3.660906372E0
1.112283071E1,3.880200247E-1,-1.523128341E0,2.681765817E0,3.108431660E0
1.113276671E1,5.357684200E-1,-1.207538910E0,2.264058419E0,2.621289481E0
1.114270171E1,6.857345545E-1,-4.104944193E-1,2.254967607E0,2.392408087E0
1.115263771E1,8.349245077E-1,4.808820319E-1,2.814883529E0,2.975216924E0
1.116257271E1,7.717538211E-1,1.313833104E0,4.118151299E0,4.391005752E0
1.117250871E1,7.669374695E-1,1.559271151E0,5.504337265E0,5.772109522E0
1.118244371E1,9.681427914E-1,5.140088475E-1,6.388798800E0,6.482149000E0
1.119237971E1,1.420078182E0,-8.290825546E-1,6.031898205E0,6.252023343E0
1.120231471E1,1.224741418E0,-1.610927793E0,5.426344764E0,5.791398570E0
1.121225071E1,6.658984601E-1,-2.207957747E0,4.691215271E0,5.227427559E0
1.122218571E1,4.618923220E-1,-2.785315329E0,3.611248573E0,4.583933055E0
1.123212171E1,3.879832603E-1,-3.319349136E0,2.028362711E0,3.909330503E0
1.124205671E1,-4.407601923E-2,-3.827579180E0,6.224583256E-1,3.878112871E0
1.125199271E1,-5.872972637E-1,-4.250041680E0,-2.446141738E-1,4.297395543E0
1.126192771E1,-7.872389292E-1,-4.451517436E0,-9.174247737E-1,4.612745476E0
1.127186371E1,-7.246388577E-1,-3.563418349E0,-1.547592068E0,3.951973306E0
1.128179871E1,-1.178262778E0,-8.863197792E-1,-2.364392985E0,2.786435019E0
1.129173471E1,-1.904662525E0,4.375507725E0,-3.483119706E0,5.908039444E0
1.130166971E1,-2.922154208E0,1.113346815E1,-4.745528010E0,1.245042707E1
1.131160571E1,-3.242683660E0,1.533264490E1,-5.080930440E0,1.647485511E1
1.132154071E1,-8.201462549E-1,1.512445011E1,-4.531749421E0,1.581007222E1
1.133147671E1,2.441634119E0,1.215626662E1,-3.433959825E0,1.286578701E1
1.134141171E1,3.070959122E0,9.477540182E0,-3.121519704E0,1.044023195E1
1.135134771E1,2.226454098E0,6.573543917E0,-2.957712004E0,7.544311617E0
1.136128371E1,1.175239183E0,3.386234266E0,-2.682094139E0,4.476762068E0
1.137121871E1,4.559980363E-1,9.605794179E-1,-2.527867686E0,2.742400785E0
1.138115371E1,-4.390905198E-1,-9.320929527E-1,-2.519248890E0,2.721803213E0
1.139108971E1,-6.450610301E-1,-2.492978520E0,-2.378576868E0,3.505520440E0
1.140102571E1,-1.731840026E-1,-3.254504099E0,-1.576289764E0,3.620287150E0
1.141096071E1,5.077140275E-1,-3.916584327E0,-9.164545745E-2,3.950418360E0
1.142089671E1,-5.600799367E-1,-3.397625227E0,2.382567886E-1,3.451711607E0
1.143083171E1,-1.221380731E0,-2.926680538E0,5.427414805E-2,3.171777979E0
1.144076771E1,9.599607825E-2,-3.081836990E0,2.697317657E-1,3.095107382E0
1.145070271E1,6.436290470E-1,-3.051095254E0,3.633956820E-1,3.139346591E0
1.146063871E1,8.943690562E-1,-2.966364421E0,4.429508516E-1,3.129763465E0
1.147057371E1,1.446615478E0,-2.882055173E0,8.328393906E-2,3.225813785E0
1.148050958E1,1.844259179E0,-2.767143352E0,-7.186985251E-1,3.402190738E0
1.149044458E1,2.094852716E0,-2.667286942E0,-1.574918885E0,3.739411321E0
1.150038058E1,2.158667766E0,-2.462302272E0,-1.982908357E0,3.828146360E0
1.151031558E1,2.037166425E0,-2.200296140E0,-1.823718788E0,3.509601169E0
1.152025158E1,2.234983870E0,-1.864661869E0,-1.396886955E0,3.228530618E0
1.153018658E1,2.684806662E0,-1.581478876E0,-9.594897893E-1,3.260350120E0
1.154012258E1,3.186760013E0,-1.318116775E0,-6.558213687E-1,3.510409218E0
1.155005758E1,3.075222035E0,-1.178878198E0,-4.910719746E-1,3.329849254E0
1.155999358E1,2.690628735E0,-1.117756083E0,-4.316201171E-1,2.945362045E0
1.156992858E1,2.463421137E0,-1.073178080E0,-3.892424217E-1,2.715080948E0
1.157986458E1,2.319886903E0,-1.124945819E0,-3.252364603E-1,2.598683724E0
1.158979958E1,1.986217881E0,-1.324186184E0,-1.136535001E-1,2.389863519E0
1.159973558E1,1.779320002E0,-1.562622775E0,1.919632128E-1,2.375840795E0
1.160967058E1,1.405718882E0,-1.826112345E0,5.284426993E-1,2.364314607E0
1.161960658E1,8.697733283E-1,-1.969582552E0,8.955048779E-1,2.331885516E0
1.162954158E1,2.214530602E-1,-2.040712761E0,1.292419724E0,2.425674911E0
1.163947758E1,-6.043155849E-1,-1.921515516E0,1.614381743E0,2.581404195E0
1.164941258E1,-1.358716916E0,-1.721280540E0,1.759462565E0,2.811516828E0
1.165934858E1,-2.047395836E0,-1.517682245E0,1.733242189E0,3.082096298E0
1.166928358E1,-2.892483097E0,-1.338121853E0,1.743368689E0,3.632679858E0
1.167921958E1,-3.752406206E0,-1.408477306E0,1.832917627E0,4.407260792E0
1.168915458E1,-4.272217538E0,-1.168804030E0,1.817574534E0,4.787642712E0
1.169909058E1,-4.298759804E0,-5.519870979E-1,1.654652541E0,4.639170253E0
1.170902658E1,-4.173581150E0,2.407649517E-1,1.247261092E0,4.362614767E0
1.171896158E1,-4.206581958E0,1.127947195E0,8.045973390E-1,4.428879488E0
1.172889758E1,-4.392260875E0,1.757511642E0,6.220887816E-1,4.771561298E0
1.173883258E1,-4.093432488E0,1.882102944E0,9.095726940E-1,4.596283663E0
1.174876858E1,-3.914958509E0,1.747604704E0,1.724195084E0,4.621024888E0
1.175870358E1,-4.305653087E0,1.384831166E0,2.544131132E0,5.189316822E0
1.176863958E1,-4.381021357E0,1.062208119E0,4.084239203E0,6.082979869E0
1.177857458E1,-3.906460750E0,1.790926141E0,5.382695299E0,6.887761663E0
1.178851058E1,-3.167257794E0,3.761861739E0,3.815564906E0,6.224279977E0
1.179844558E1,-2.651222009E0,5.664339305E0,6.105864313E-1,6.283831132E0
1.180838158E1,-7.349722034E-1,7.666182116E0,-2.974646417E0,8.255849664E0
1.181831658E1,3.205832461E0,1.056547196E1,-5.360810341E0,1.227374625E1
1.182825258E1,6.885797512E0,1.234850319E1,-3.681884108E0,1.461013377E1
1.183818758E1,8.210800552E0,9.340715336E0,-1.231343071E0,1.249729629E1
1.184812358E1,8.391453788E0,4.880563901E0,-5.768455119E-1,9.724667162E0
1.185805858E1,7.311450838E0,2.411378286E0,-2.572337808E-1,7.703131040E0
1.186799458E1,5.396252654E0,1.297013004E0,4.578537963E-1,5.568789414E0
1.187792958E1,3.706848502E0,6.685425711E-1,5.504046951E-1,3.806654741E0
1.188786558E1,2.803183835E0,1.621292567E-1,4.375132334E-1,2.841750049E0
1.189780058E1,2.563084881E0,-1.068848802E0,1.284828868E0,3.059841024E0
1.190773658E1,3.136453200E0,-1.894683813E0,1.636121691E0,4.012986371E0
1.191767158E1,3.978271575E0,-1.947518084E0,1.440942802E0,4.657873718E0
1.192760758E1,5.024880200E0,-1.389047593E0,1.145888645E0,5.337783719E0
1.193754258E1,6.100692451E0,-6.239289004E-1,1.199987816E0,6.248816401E0
1.194747858E1,6.353078159E0,3.417598146E-1,1.534032229E0,6.544589884E0
1.195741358E1,5.825074586E0,9.398142010E-1,2.195197807E0,6.295525242E0
1.196734958E1,3.321705564E0,5.716015828E-1,2.683277907E0,4.308182511E0
1.197728458E1,-7.209646136E-2,-2.752231783E-1,2.547122567E0,2.562962948E0
1.198722058E1,-2.203993042E0,-1.262032036E0,1.471544643E0,2.935260436E0
1.199715558E1,-3.178868903E0,-2.299207056E0,2.702907595E-1,3.932507810E0
1.200709158E1,-3.589970555E0,-3.027951974E0,-9.606478304E-1,4.793665195E0
1.201702658E1,-2.826863012E0,-3.615034060E0,-1.431168596E0,4.807064520E0
1.202696258E1,-1.560855746E0,-4.078548692E0,-1.080262567E0,4.498643941E0
1.203689858E1,-6.960619068E-1,-4.129908296E0,-6.714790428E-1,4.241642231E0
1.204683358E1,1.332248618E-1,-3.914220298E0,-2.900292054E-2,3.916594257E0
1.205676958E1,5.724801269E-1,-3.501501013E0,5.751175135E-1,3.594301461E0
1.206670458E1,6.010522538E-1,-2.958960092E0,9.141460937E-1,3.154737979E0
1.207664058E1,7.744008556E-1,-2.310601525E0,9.501611415E-1,2.615603618E0
1.208657558E1,5.249478185E-1,-1.497153840E0,9.308591902E-1,1.839439769E0
1.209651158E1,1.906848653E-1,-6.895650655E-1,9.798382460E-1,1.213236863E0
1.210644658E1,-8.305531293E-3,-9.294967890E-2,8.607047354E-1,8.657489625E-1
1.211638258E1,-9.023832500E-2,2.757453346E-1,6.078999281E-1,6.735879805E-1
1.212631758E1,-8.157655209E-2,2.864194268E-1,5.472876906E-1,6.230687267E-1
1.213625358E1,6.681525618E-2,2.017610997E-1,7.264384845E-1,7.568914662E-1
1.214618858E1,2.870781156E-1,1.500062245E-1,1.082355870E0,1.129783139E0
1.215612458E1,7.117828770E-1,-5.118360221E-2,1.348363106E0,1.525561434E0
1.216605958E1,1.033688909E0,-1.677922851E-1,1.729345019E0,2.021707498E0
1.217599558E1,1.266513488E0,-2.241167593E-1,1.992801992E0,2.371823037E0
1.218593058E1,1.384778249E0,-1.519387293E-1,2.176286888E0,2.583973838E0
1.219586658E1,1.428285042E0,1.002212763E-2,2.049466628E0,2.498081676E0
1.220580158E1,1.361273904E0,1.760193175E-1,2.275295890E0,2.657258141E0
1.221573758E1,1.100914640E0,2.481447226E-1,3.075386342E0,3.275910560E0
1.222567258E1,1.005791259E0,2.625505078E-1,3.536967300E0,3.686554829E0
1.223560858E1,8.489902773E-1,3.355910021E-1,4.347184982E0,4.442006650E0
1.224554358E1,7.493154234E-1,3.843456709E-1,4.911935382E0,4.983603556E0
1.225547958E1,8.786014545E-1,2.867076945E-1,5.250586817E0,5.331304132E0
1.226541458E1,6.730592528E-1,3.729061782E-2,5.923848676E0,5.962078705E0
1.227535058E1,3.565909848E-1,-6.312303185E-1,6.054408231E0,6.097660852E0
1.228528558E1,1.890732447E-1,-1.534211739E0,5.858380326E0,6.058892176E0
1.229522158E1,2.252929267E-1,-2.225889403E0,5.679026926E0,6.103825634E0
1.230515658E1,4.445714074E-1,-2.703464835E0,5.375264073E0,6.033227138E0
1.231509258E1,6.015887359E-1,-2.862254162E0,4.971891562E0,5.768371833E0
1.232502758E1,7.739245268E-1,-2.618439302E0,4.278358576E0,5.075385272E0
1.233496358E1,1.139642869E0,-2.139624261E0,3.832408980E0,4.534769723E0
1.234489958E1,1.349785879E0,-1.865453582E0,3.725193849E0,4.379373037E0
1.235483458E1,1.440164537E0,-1.941448674E0,3.490742136E0,4.246007243E0
1.236477058E1,1.581139737E0,-2.323874120E0,2.922246594E0,4.054616992E0
1.237470558E1,1.453417544E0,-2.634761220E0,1.956216402E0,3.589034948E0
1.238464158E1,6.992790449E-1,-2.599235877E0,8.478486085E-1,2.822032174E0
1.239457658E1,-3.732467785E-1,-2.005466915E0,-1.847720146E-3,2.039905419E0
1.240451258E1,-1.017852457E0,-4.617400020E-1,-4.602354404E-1,1.208736577E0
1.241444758E1,-1.146032926E0,2.498474903E0,-8.498319840E-1,2.877148364E0
1.242438358E1,-1.549978902E0,6.711496106E0,-1.460998605E0,7.041387044E0
1.243431858E1,-3.077882518E0,1.036284138E1,-2.389849277E0,1.107127914E1
1.244425458E1,-3.568337612E0,1.169969380E1,-3.005441948E0,1.259557659E1
1.245418958E1,-9.034266856E-1,1.084338544E1,-2.807096207E0,1.123721392E1
1.246412558E1,2.792986876E0,9.638715173E0,-2.487325432E0,1.033887778E1
1.247406038E1,4.958868059E0,9.006521233E0,-2.506875890E0,1.058263785E1
1.248399637E1,5.864176086E0,7.846751736E0,-2.256311297E0,1.005241337E1
1.249393137E1,5.836055072E0,6.075544161E0,-1.677695979E0,8.589903344E0
1.250386738E1,5.143637735E0,3.838733329E0,-1.356789382E0,6.560012206E0
1.251380238E1,3.741926242E0,1.758553031E0,-1.289074824E0,4.330846876E0
1.252373837E1,2.197753625E0,-2.889641351E-1,-1.389939879E0,2.616400988E0
1.253367337E1,1.511053403E0,-1.643888547E0,-1.336711213E0,2.602392900E0
1.254360938E1,7.917325875E-1,-2.218661660E0,-1.752871584E0,2.936300196E0
1.255354437E1,2.151580940E-1,-2.953918623E0,-2.249553670E0,3.719196143E0
1.256348037E1,-1.378871392E-1,-3.669453512E0,-2.182107207E0,4.271474429E0
1.257341538E1,-1.628612843E0,-3.472336856E0,-2.605634193E0,4.636683359E0
1.258335138E1,-2.141753671E0,-3.719317397E0,-2.230652253E0,4.836966008E0
1.259328637E1,-1.534104150E0,-4.085861805E0,-2.098596980E0,4.842711174E0
1.260322237E1,-1.029566622E0,-4.374828864E0,-1.775720456E0,4.832423632E0
1.261315738E1,-4.773316026E-1,-4.104301000E0,-1.144146321E0,4.287447138E0
1.262309338E1,4.062160116E-1,-3.835700378E0,-7.653087276E-1,3.932341069E0
1.263302937E1,1.725277989E0,-3.705709757E0,-7.031411308E-1,4.147683256E0
1.264296437E1,2.585121868E0,-3.585457674E0,-6.374804074E-1,4.465953770E0
1.265290038E1,3.068892132E0,-3.391536521E0,-5.654535279E-1,4.608726135E0
1.266283537E1,3.356558185E0,-3.216691325E0,-5.333865201E-1,4.679539198E0
1.267277137E1,3.679880852E0,-2.978321977E0,-5.427473277E-1,4.765133738E0
1.268270638E1,3.829989987E0,-2.730521071E0,-6.326827669E-1,4.746035830E0
1.269264238E1,3.971481496E0,-2.670187746E0,-6.611335641E-1,4.831114308E0
1.270257737E1,3.867499583E0,-2.452299441E0,-6.729224280E-1,4.628622923E0
1.271251337E1,3.499953840E0,-2.087780508E0,-6.063635722E-1,4.120216149E0
1.272244838E1,2.985266131E0,-1.714723472E0,-4.642317930E-1,3.473845364E0
1.273238438E1,2.481639014E0,-1.395526308E0,-3.672425652E-1,2.870695556E0
1.274231937E1,1.957405141E0,-1.082688577E0,-2.525181475E-1,2.251091925E0
1.275225537E1,1.157495807E0,-6.760264224E-1,-2.487990260E-3,1.340453079E0
1.276219038E1,2.332901636E-1,-4.221315479E-1,4.524031681E-1,6.612775292E-1
1.277212637E1,-5.483360964E-1,-3.641721922E-1,8.742274448E-1,1.094334266E0
1.278206137E1,-1.089688863E0,-3.965996808E-1,1.086267950E0,1.588927684E0
1.279199738E1,-1.653975725E0,-3.891298628E-1,1.186980392E0,2.072674649E0
1.280193238E1,-2.617475097E0,-5.469193161E-1,1.587598864E0,3.109785647E0
1.281186837E1,-3.606375504E0,-8.005306005E-1,2.337082103E0,4.371355198E0
1.282180337E1,-4.366126453E0,-7.694263369E-1,2.860973329E0,5.276385645E0
1.283173938E1,-4.682616355E0,-1.643400890E-1,3.186220607E0,5.666207316E0
1.284167437E1,-4.939944715E0,9.966105455E-1,3.200226150E0,5.969734816E0
1.285161037E1,-5.777457200E0,2.384271179E0,2.991141998E0,6.928974759E0
1.286154637E1,-6.630584675E0,3.363675708E0,2.640222812E0,7.889850689E0
1.287148138E1,-6.492892687E0,3.317167540E0,1.675409718E0,7.481193331E0
1.288141737E1,-5.782071823E0,2.175664160E0,1.167063606E0,6.287122280E0
1.289135237E1,-5.249417374E0,5.109946078E-1,1.281165003E0,5.427603709E0
1.290128838E1,-4.999897971E0,-1.015854902E0,2.200238838E0,5.556257000E0
1.291122338E1,-4.606603429E0,-1.391362506E0,3.880812524E0,6.182021564E0
1.292115937E1,-3.795255480E0,-3.948811841E-1,5.094977791E0,6.365429600E0
1.293109437E1,-1.920143175E0,2.058541507E0,1.805694161E0,3.344409417E0
1.294103038E1,-9.634884077E-1,4.829446372E0,-2.968106892E0,5.749914842E0
1.295096537E1,8.206783515E-1,7.788152695E0,-6.572883182E0,1.022407104E1
1.296090137E1,3.486956649E0,1.001425961E1,-7.346055245E0,1.289995310E1
1.297083638E1,6.581414269E0,1.034097864E1,-3.619595473E0,1.278093597E1
1.298077238E1,9.225311179E0,8.605795172E0,9.711172700E-2,1.261647762E1
1.299070737E1,9.471545616E0,6.258540961E0,1.781185556E0,1.149139388E1
1.300064337E1,8.872396047E0,4.381917443E0,1.786999151E0,1.005554464E1
1.301057838E1,7.601549917E0,2.545205265E0,1.154527322E0,8.099047125E0
1.302051438E1,5.681409082E0,9.901213056E-1,-3.579864228E-1,5.778140154E0
1.303044937E1,4.120731091E0,-5.689908010E-1,-6.497110283E-1,4.210261236E0
1.304038537E1,3.987183901E0,-1.338082092E0,1.890404820E-1,4.209968581E0
1.305032038E1,4.535463280E0,-4.631825101E-1,2.340549794E-1,4.565057166E0
1.306025637E1,5.380894942E0,8.507505816E-1,-5.338963974E-1,5.473833418E0
1.307019137E1,5.515451068E0,2.086072537E0,-1.081691626E0,5.995161039E0
1.308012738E1,4.356703957E0,2.439867675E0,-4.206884551E-1,5.011067992E0
1.309006238E1,2.393341965E0,1.893748843E0,7.520530897E-1,3.143239458E0
1.309999837E1,1.204011431E0,1.070560867E0,1.719874284E0,2.356631420E0
1.310993437E1,5.085361460E-1,3.753134769E-1,2.459309083E0,2.539226335E0
1.311986938E1,-6.454270658E-1,-3.449652582E-1,2.154254580E0,2.275168108E0
1.312980538E1,-1.585818679E0,-1.411504410E0,2.073094642E0,2.967302980E0
1.313974037E1,-2.180934109E0,-2.331754412E0,9.657533267E-1,3.335600653E0
1.314967637E1,-1.531315174E0,-3.110256797E0,-4.205928531E-1,3.492208736E0
1.315961138E1,-8.979402432E-1,-3.655593272E0,-1.775625439E0,4.162031301E0
1.316954738E1,-5.086577681E-1,-4.030182279E0,-2.658231944E0,4.854616256E0
1.317948237E1,1.058484904E-1,-3.930010704E0,-2.613546352E0,4.720891078E0
1.318941837E1,7.331522575E-1,-3.524957703E0,-1.859491907E0,4.052227683E0
1.319935338E1,9.573887385E-1,-2.547592099E0,-1.678496024E0,3.197525231E0
1.320928937E1,1.505300766E0,-1.984014650E0,-7.598345643E-1,2.603765176E0
1.321922437E1,1.895446582E0,-1.385862030E0,1.350858843E-1,2.351931017E0
1.322916038E1,1.615395212E0,-7.710091782E-1,6.866494976E-1,1.917144850E0
1.323909538E1,1.220591357E0,-5.033967358E-1,8.523825395E-1,1.571562130E0
1.324903137E1,9.354317129E-1,-5.601521498E-1,7.046080510E-1,1.298181584E0
1.325896638E1,7.536950610E-1,-7.666915941E-1,7.324834822E-1,1.300924401E0
1.326890238E1,6.963511247E-1,-1.087392662E0,8.486384211E-1,1.545158522E0
1.327883737E1,8.362817927E-1,-1.395035142E0,6.844955295E-1,1.764659858E0
1.328877337E1,7.778228655E-1,-1.656107474E0,5.667176959E-1,1.915429279E0
1.329870838E1,3.519222023E-1,-2.023714321E0,6.937528414E-1,2.168077926E0
1.330864438E1,-4.441815443E-2,-2.169029324E0,5.621347944E-1,2.241128445E0
1.331857937E1,-5.248499507E-1,-2.191327681E0,4.717486811E-1,2.302157965E0
1.332851537E1,-1.012312585E0,-2.077893451E0,4.755411851E-1,2.359779097E0
1.333845138E1,-1.470901596E0,-1.842945895E0,5.410826254E-1,2.419250190E0
1.334838638E1,-1.691707369E0,-1.256343865E0,9.398128854E-1,2.307275881E0
1.335832237E1,-1.939500382E0,-7.211347675E-1,1.266408092E0,2.426002172E0
1.336825737E1,-1.753989279E0,-1.439672202E-1,1.834511140E0,2.542171527E0
1.337819338E1,-1.542609364E0,2.830777431E-1,2.457498200E0,2.915317146E0
1.338812837E1,-1.093647721E0,4.652518398E-1,3.418359454E0,3.619075291E0
1.339806437E1,-8.112032309E-1,5.472637171E-1,4.121785929E0,4.236350729E0
1.340799938E1,-3.883460435E-1,4.175613642E-1,4.746608576E0,4.780738762E0
1.341793538E1,-1.285364181E-3,2.615693450E-2,4.557335082E0,4.557410327E0
1.342787037E1,4.574086770E-1,-5.452446735E-1,3.448219430E0,3.520899273E0
1.343780637E1,9.517397435E-1,-8.784353936E-1,2.573244419E0,2.880806158E0
1.344774138E1,1.464337658E0,-8.196498263E-1,2.366426647E0,2.901049067E0
1.345767738E1,1.601925420E0,-4.971349525E-1,2.719049419E0,3.194767277E0
1.346761237E1,1.040667123E0,3.091773748E-2,3.877438973E0,4.014782305E0
1.347754783E1,6.933942609E-1,5.238497114E-1,5.365544831E0,5.435465523E0
1.348748283E1,1.132706536E0,2.152664137E-1,6.250374155E0,6.355827311E0
1.349741883E1,1.670028817E0,-6.020106125E-1,6.020362818E0,6.276637753E0
1.350735383E1,1.337295642E0,-1.102142263E0,5.425506274E0,5.695541724E0
1.351728983E1,3.505075416E-1,-1.411370509E0,4.622946981E0,4.846283219E0
1.352722483E1,-2.866866446E-1,-1.758287567E0,3.404757076E0,3.842672917E0
1.353716083E1,-8.234739053E-1,-2.006451586E0,1.874029839E0,2.866346992E0
1.354709683E1,-1.363014620E0,-2.202845526E0,4.467079800E-1,2.628666066E0
1.355703183E1,-1.671330115E0,-2.343028429E0,-5.688298564E-1,2.933716751E0
1.356696783E1,-1.915532937E0,-2.339164588E0,-1.420232987E0,3.340362128E0
1.357690283E1,-1.523959669E0,-1.534967199E0,-2.456760281E0,3.273262662E0
1.358683883E1,-1.039854506E0,3.944221777E-1,-3.547809792E0,3.718039882E0
1.359677383E1,-9.112635626E-1,3.514683561E0,-4.714636293E0,5.950730811E0
1.360670983E1,-8.754977524E-1,7.545624808E0,-5.297638192E0,9.261097153E0
1.361664483E1,1.706144437E-2,1.082226530E1,-4.495638771E0,1.171889437E1
1.362658083E1,1.858951624E0,1.222658172E1,-2.922790970E0,1.270778143E1
1.363651583E1,3.903544452E0,1.241583037E1,-1.888605194E0,1.315132437E1
1.364645183E1,4.487791223E0,1.176700695E1,-1.914923657E0,1.273851071E1
1.365638683E1,3.874830530E0,1.000194304E1,-2.440267332E0,1.100036731E1
1.366632283E1,3.148673004E0,6.928844714E0,-2.912055190E0,8.148809495E0
1.367625783E1,2.159710324E0,3.294707215E0,-3.664503844E0,5.380337604E0
1.368619383E1,6.037410960E-2,8.955075091E-1,-4.000896792E0,4.100335824E0
1.369612883E1,-1.041437347E0,-8.448811466E-1,-4.131091188E0,4.343308681E0
1.370606483E1,-1.006536486E0,-1.793242807E0,-3.635641695E0,4.176927818E0
1.371599983E1,-1.029124719E0,-2.507815830E0,-2.466941746E0,3.665247536E0
1.372593583E1,-1.544237082E0,-3.295014778E0,-1.944460575E0,4.125859605E0
1.373587083E1,-2.704242807E0,-3.024808511E0,-1.997649772E0,4.522499342E0
1.374580683E1,-2.655336987E0,-3.582633469E0,-1.918476133E0,4.854547123E0
1.375574283E1,-2.431568284E0,-3.953539900E0,-2.193293222E0,5.133569637E0
1.376567783E1,-2.705099131E0,-3.927775898E0,-2.085181421E0,5.205090429E0
1.377561383E1,-2.372147563E0,-3.614836425E0,-1.582537807E0,4.604188565E0
1.378554883E1,-1.839405406E0,-3.237277617E0,-1.573078181E0,4.042023451E0
1.379548483E1,-1.230731598E0,-2.920402383E0,-2.098288832E0,3.800824432E0
1.380541983E1,-9.209870437E-1,-2.602324376E0,-2.475399158E0,3.707817456E0
1.381535583E1,-7.325520408E-1,-2.305630807E0,-2.408200909E0,3.413502238E0
1.382529083E1,-5.989574888E-1,-2.252329928E0,-1.994306334E0,3.067408993E0
1.383522683E1,6.248948604E-2,-2.521383709E0,-1.396892803E0,2.883156299E0
1.384516183E1,1.349139762E0,-2.959976338E0,-6.702873802E-1,3.321283365E0
1.385509783E1,2.744151515E0,-3.416392450E0,-8.732816577E-3,4.382029344E0
1.386503283E1,3.944796850E0,-3.727913389E0,6.154507300E-1,5.462374944E0
1.387496883E1,4.774280232E0,-3.955012813E0,1.225610315E0,6.319651788E0
1.388490383E1,5.265658600E0,-4.211048353E0,1.505823214E0,6.908515925E0
1.389483983E1,5.565497387E0,-4.279270157E0,1.594270830E0,7.199209243E0
1.390477483E1,5.420188231E0,-3.934518907E0,1.608347709E0,6.888081144E0
1.391471083E1,4.632411285E0,-3.252665150E0,1.662295290E0,5.899346618E0
1.392464583E1,3.520107730E0,-2.412815532E0,1.795650691E0,4.630032249E0
1.393458183E1,2.589796132E0,-1.741161073E0,1.909059485E0,3.658304799E0
1.394451683E1,1.533177512E0,-1.443960550E0,1.884851135E0,2.826361469E0
1.395445283E1,2.208110359E-1,-1.456888159E0,1.830297782E0,2.349738410E0
1.396438883E1,-7.687201394E-1,-1.083923509E0,1.772410640E0,2.215233690E0
1.397432383E1,-1.235741785E0,7.358077705E-2,1.757911592E0,2.150052338E0
1.398425983E1,-2.135695079E0,1.520719873E0,1.871101115E0,3.220993912E0
1.399419483E1,-3.665552250E0,2.534000246E0,1.850095870E0,4.824964795E0
1.400413083E1,-4.621701525E0,2.796522687E0,7.951105240E-1,5.460115829E0
1.401406583E1,-5.776415226E0,2.377716451E0,-5.368065566E-2,6.246870417E0
1.402400183E1,-6.458615724E0,1.812067333E0,9.636942297E-2,6.708695265E0
1.403393683E1,-6.591354536E0,1.536068230E0,9.041900396E-2,6.768577090E0
1.404387283E1,-6.429581375E0,1.261581801E0,3.702918881E-1,6.562638294E0
1.405380783E1,-6.632697859E0,5.229854929E-1,1.262439295E0,6.771997319E0
1.406374383E1,-6.341277308E0,-6.890084106E-1,1.674391133E0,6.594703644E0
1.407367883E1,-6.321808419E0,-1.543544480E0,2.037647651E0,6.819076125E0
1.408361483E1,-5.944412749E0,-9.007267338E-1,3.405185969E0,6.909605131E0
1.409354983E1,-3.727583022E0,2.026377143E0,3.915876814E0,5.773661813E0
1.410348583E1,-1.957888413E0,5.243630385E0,1.265650001E0,5.738541328E0
1.411342083E1,1.050051173E0,9.316394427E0,-2.401585662E0,9.678090012E0
1.412335683E1,4.210651620E0,1.420747571E1,-5.345657866E0,1.575303181E1
1.413329183E1,7.041981905E0,1.725064039E1,-4.583929096E0,1.918818670E1
1.414322783E1,9.611932002E0,1.349262787E1,-1.345495192E0,1.662078822E1
1.415316383E1,9.782254962E0,5.785605295E0,-4.253650582E-1,1.137306802E1
1.416309883E1,7.745442293E0,2.007614012E0,-6.928430146E-1,8.031339974E0
1.417303483E1,4.156113470E0,2.889097559E-1,-6.718430319E-1,4.219966953E0
1.418296983E1,2.746190439E0,-7.411831158E-1,-9.002870232E-2,2.845877634E0
1.419290583E1,1.709482613E0,-1.707851239E0,3.408836094E-1,2.440345937E0
1.420284083E1,1.001033087E0,-2.591218175E0,3.117916650E-1,2.795298358E0
1.421277683E1,1.672552476E0,-2.493849170E0,-1.278844535E-1,3.005506596E0
1.422271183E1,1.054375481E0,-2.326135823E0,-7.437728477E-1,2.660040144E0
1.423264783E1,9.019651741E-1,-1.066070790E0,-1.316937391E0,1.919471853E0
1.424258283E1,1.644426491E0,6.913315094E-1,-1.872508832E0,2.586187748E0
1.425251883E1,2.191758036E0,2.089392001E0,-1.761910210E0,3.503382624E0
1.426245383E1,2.507085805E0,2.738370958E0,-8.776635611E-1,3.815029235E0
1.427238983E1,2.796308094E0,2.822129399E0,2.734652129E-1,3.982277806E0
1.428232483E1,2.608363965E0,2.603927683E0,1.134548994E0,3.856319926E0
1.429226083E1,1.214019525E0,1.374918382E0,2.605780958E0,3.186587260E0
1.430219583E1,-1.927714442E-1,-9.255832475E-1,3.270198318E0,3.404124295E0
1.431213183E1,-5.188905416E-1,-2.878639230E0,1.609289695E0,3.338506332E0
1.432206783E1,-7.025217645E-1,-4.545645913E0,1.034226269E-3,4.599612448E0
1.433200283E1,-6.464387803E-1,-5.814363656E0,-8.620292759E-1,5.913357954E0
1.434193883E1,-7.761272460E-1,-6.426498138E0,-1.104817364E0,6.566800836E0
1.435187383E1,-7.102621624E-1,-6.638845621E0,-8.931367555E-1,6.736203440E0
1.436180983E1,2.094061880E-1,-6.395885040E0,-2.556509395E-1,6.404416742E0
1.437174483E1,1.066088185E0,-5.788291506E0,6.888838649E-2,5.886052004E0
1.438168083E1,8.401665366E-1,-4.644656816E0,3.048508738E-1,4.729867948E0
1.439161583E1,3.298741794E-1,-3.167822635E0,5.812392560E-1,3.237554061E0
1.440155183E1,-9.506125465E-2,-1.743723907E0,5.287309670E-1,1.824600269E0
1.441148683E1,-5.750127022E-1,-4.507425588E-1,2.564039147E-1,7.743070641E-1
1.442142283E1,-1.045799662E0,5.894104475E-1,1.879049528E-1,1.215076080E0
1.443135783E1,-1.582250416E0,1.300905495E0,2.683515304E-1,2.065885774E0
1.444129383E1,-1.929480301E0,1.604329795E0,2.434248501E-1,2.521115622E0
1.445122883E1,-1.805954947E0,1.592554087E0,1.427305341E-1,2.412068364E0
1.446116483E1,-1.453967913E0,1.064098524E0,6.417406887E-2,1.802899518E0
1.447109983E1,-9.340213645E-1,3.253659761E-1,1.059554945E-1,9.947288547E-1
1.448103633E1,-3.990237902E-1,-9.912024558E-2,1.595845485E-1,4.410351872E-1
1.449097133E1,-6.198746603E-2,-2.587351996E-1,2.637322301E-1,3.746211935E-1
1.450090733E1,6.659649722E-3,-2.199599737E-1,3.835767621E-1,4.422192594E-1
1.451084333E1,-4.630717054E-2,-2.023066449E-1,5.690808481E-1,6.057436292E-1
1.452077833E1,-1.999015389E-1,-2.315123177E-1,9.656998247E-1,1.012983085E0
1.453071433E1,-3.965480060E-1,-2.848593897E-1,1.666141735E0,1.736209513E0
1.454064933E1,-2.622219674E-1,-1.934065980E-1,2.064775077E0,2.090325953E0
1.455058533E1,-5.111539993E-2,-1.162397236E-1,2.702597693E0,2.705579189E0
1.456052033E1,2.059094799E-1,-1.468335253E-1,3.252018448E0,3.261837332E0
1.457045633E1,5.535030982E-1,-3.549745220E-1,3.783960121E0,3.840667492E0
1.458039133E1,8.211521222E-1,-6.988036662E-1,4.321633235E0,4.454113962E0
1.459032733E1,7.467315388E-1,-1.199643999E0,4.602103704E0,4.814157478E0
1.460026233E1,6.487208024E-1,-1.808681796E0,4.387500950E0,4.789815560E0
1.461019833E1,6.531690717E-1,-2.211250314E0,3.922954284E0,4.550365711E0
1.462013333E1,4.994064862E-1,-2.182037625E0,3.161764335E0,3.873944856E0
1.463006933E1,2.120088202E-1,-1.751611217E0,2.426782045E0,3.000393422E0
1.464000433E1,-8.859445341E-3,-9.782005870E-1,2.232540611E0,2.437456145E0
1.464994033E1,-2.538737879E-1,-2.767545640E-1,2.698208188E0,2.724219597E0
1.465987533E1,-5.590502786E-2,-3.726500702E-1,3.345151729E0,3.366308592E0
1.466981133E1,3.135741521E-1,-9.092911506E-1,3.824349178E0,3.943448463E0
1.467974733E1,3.104362804E-1,-1.280411589E0,3.941725016E0,4.156082365E0
1.468968233E1,2.220890180E-1,-1.534994681E0,3.615865535E0,3.934465118E0
1.469961833E1,4.471029595E-2,-1.658446360E0,2.700709042E0,3.169585567E0
1.470955333E1,-3.035902689E-1,-1.578290389E0,1.573055231E0,2.248926491E0
1.471948933E1,-8.482377407E-1,-1.223046311E0,9.504789376E-1,1.766001063E0
1.472942433E1,-1.430657403E0,-5.322036284E-1,7.264286904E-1,1.690479207E0
1.473936033E1,-1.449593465E0,7.989173537E-1,-1.701875970E-2,1.655258225E0
1.474929533E1,-1.147648877E0,2.788272266E0,-1.585176217E0,3.406514907E0
1.475923133E1,-1.846650983E0,5.178788272E0,-3.837506583E0,6.704955226E0
1.476916633E1,-2.509387561E0,8.482435879E0,-5.638532034E0,1.049008045E1
1.477910233E1,-1.446652316E0,1.103768608E1,-6.547644260E0,1.291491240E1
1.478903733E1,9.894642247E-1,1.110805732E1,-6.527124041E0,1.292173847E1
1.479897333E1,3.040074422E0,9.810362527E0,-5.443408109E0,1.162393897E1
1.480890833E1,3.687802952E0,8.289114066E0,-4.176313553E0,9.987537109E0
1.481884433E1,3.172930763E0,6.575719666E0,-3.348852432E0,8.032583106E0
1.482877933E1,2.198823081E0,4.762291101E0,-2.910140812E0,5.998596420E0
1.483871533E1,1.544929100E0,3.106577729E0,-2.695657340E0,4.393654470E0
1.484865133E1,1.002201799E0,1.476086322E0,-2.528127010E0,3.094295632E0
1.485858633E1,5.054967633E-1,1.553108186E-1,-2.229247459E0,2.291111665E0
1.486852233E1,4.691915475E-1,-1.528786692E0,-1.974198637E0,2.540627819E0
1.487845733E1,-3.260264191E-1,-2.296836010E0,-1.808578592E0,2.941548131E0
1.488839333E1,-1.479090037E0,-2.632402453E0,-2.075439960E0,3.663973395E0
1.489832833E1,-1.430478625E0,-3.666135217E0,-1.778011688E0,4.318349463E0
1.490826433E1,-8.383819664E-1,-4.595070673E0,-1.036945224E0,4.784643582E0
1.491819933E1,-7.259098962E-1,-4.748743687E0,-8.769718355E-1,4.883297183E0
1.492813533E1,-1.255788233E0,-4.442622651E0,-1.196825934E0,4.769307332E0
1.493807033E1,-9.748795147E-1,-4.245880217E0,-1.385110371E0,4.571260179E0
1.494800633E1,2.473657273E-1,-3.989023728E0,-1.524851808E0,4.277694840E0
1.495794133E1,7.977256912E-1,-3.596562122E0,-2.011494517E0,4.197348635E0
1.496787733E1,9.981659049E-1,-2.847664774E0,-2.061777940E0,3.654648836E0
1.497781233E1,1.619924904E0,-1.934169475E0,-1.751181154E0,3.071124173E0
1.498774833E1,2.086664275E0,-1.163274318E0,-1.507105509E0,2.824666697E0
1.499768333E1,2.273997370E0,-6.002184409E-1,-1.557784204E0,2.820995895E0
1.500761933E1,2.367865646E0,-4.253709054E-1,-1.508869029E0,2.839791167E0
1.501755533E1,2.509195188E0,-5.556667507E-1,-1.108161387E0,2.798722510E0
1.502749033E1,2.471209044E0,-9.357153028E-1,-5.612026021E-1,2.701367362E0
1.503742633E1,2.279339971E0,-1.419189990E0,-1.496524680E-1,2.689216762E0
1.504736133E1,2.157437950E0,-1.970018755E0,2.099267364E-2,2.921635346E0
1.505729733E1,1.836837601E0,-2.458603324E0,9.289588451E-2,3.070396118E0
1.506723233E1,1.517945808E0,-2.807008499E0,3.604481006E-1,3.211445005E0
1.507716833E1,9.732955040E-1,-3.015766962E0,6.272176668E-1,3.230411198E0
1.508710333E1,1.499388354E-1,-3.152407036E0,8.331063160E-1,3.264079948E0
1.509703933E1,-7.071733707E-1,-3.250012853E0,9.305779392E-1,3.453788213E0
1.510697433E1,-1.562722616E0,-3.197275645E0,9.591725779E-1,3.685740843E0
1.511691033E1,-2.321734769E0,-2.822584897E0,1.090756272E0,3.814077488E0
1.512684533E1,-3.034188614E0,-2.298822894E0,1.338234705E0,4.035066216E0
1.513678133E1,-3.783808678E0,-1.898288037E0,1.403128858E0,4.459761896E0
1.514671633E1,-4.536294461E0,-1.350329670E0,1.343125316E0,4.919892608E0
1.515665233E1,-4.965323970E0,-5.523899710E-1,1.276648321E0,5.156491806E0
1.516658733E1,-5.033428245E0,5.824721414E-1,1.154587694E0,5.196897770E0
1.517652333E1,-5.192721602E0,2.130564585E0,1.290431963E0,5.759242809E0
1.518645933E1,-4.931836381E0,3.063155721E0,1.124536807E0,5.913587413E0
1.519639433E1,-5.000217229E0,3.375002934E0,7.838020089E-1,6.083351275E0
1.520633033E1,-5.112051076E0,3.228909667E0,4.790290493E-1,6.065343574E0
1.521626533E1,-5.244731416E0,2.547805522E0,6.297562355E-1,5.864734735E0
1.522620133E1,-5.408019590E0,1.515234600E0,1.223611736E0,5.748029007E0
1.523613633E1,-5.406399912E0,7.900874734E-2,2.026050576E0,5.774104547E0
1.524607233E1,-5.261302425E0,-1.162767949E0,2.811331638E0,6.077575017E0
1.525600733E1,-4.807447978E0,-1.207879803E0,3.679885237E0,6.173498606E0
1.526594333E1,-3.107481124E0,8.482193220E-1,2.895128962E0,4.331014507E0
1.527587833E1,-1.647333435E0,4.036769752E0,6.463541418E-2,4.360435209E0
1.528581433E1,-1.190642211E-1,7.287162089E0,-3.412064634E0,8.047303440E0
1.529574933E1,2.303595976E0,1.068251216E1,-6.163753502E0,1.254649265E1
1.530568533E1,5.506593121E0,1.346054186E1,-5.412980953E0,1.551802558E1
1.531562033E1,8.844663287E0,1.264936465E1,-2.542814339E0,1.564290253E1
1.532555633E1,1.074550890E1,7.634459217E0,-7.942974687E-1,1.320537154E1
1.533549133E1,1.008046179E1,3.570382968E0,-7.556795329E-2,1.069434687E1
1.534542733E1,6.804966772E0,9.754687679E-1,1.747133419E-1,6.876746094E0
1.535536333E1,3.321357070E0,-5.630295646E-1,-4.007368782E-1,3.392492464E0
1.536529833E1,1.585234835E0,-1.953510311E0,-9.752456966E-1,2.698198692E0
1.537523433E1,1.189448794E0,-3.574279552E0,-3.066990325E-1,3.779461211E0
1.538516933E1,1.474540318E0,-3.869260472E0,1.697300524E-2,4.140740735E0
1.539510533E1,1.824696735E0,-3.388200685E0,-4.283769590E-1,3.872070360E0
1.540504033E1,2.297279813E0,-2.621084583E0,-1.154550272E0,3.671588929E0
1.541497633E1,2.437675993E0,-9.500702173E-1,-1.946718477E0,3.261075052E0
1.542491133E1,2.438703787E0,9.620815676E-1,-1.852165784E0,3.209890216E0
1.543484733E1,2.047004804E0,2.013596299E0,-8.646935597E-1,2.998748685E0
1.544478233E1,1.387928144E0,2.773772925E0,6.368845761E-2,3.102292216E0
1.545471833E1,1.039106647E0,2.953733266E0,1.084065011E-1,3.133055186E0
1.546465333E1,8.422142315E-1,2.500305081E0,7.874848777E-1,2.753358448E0
1.547458933E1,-2.970264222E-1,9.945435548E-1,2.034631657E0,2.284090094E0
1.548452400E1,-9.922654796E-1,-7.025254190E-1,1.852932354E0,2.216188407E0
1.549446000E1,-8.991251814E-1,-2.026969466E0,1.467031324E-1,2.222285561E0
1.550439500E1,-6.976991272E-1,-3.241517433E0,-1.187303451E0,3.521918344E0
1.551433100E1,-4.526449504E-1,-4.076799790E0,-1.714046364E0,4.445575207E0
1.552426700E1,-1.385632235E-1,-4.323137723E0,-1.577218010E0,4.603947892E0
1.553420200E1,1.987306340E-1,-3.708433390E0,-2.294744461E0,4.365526797E0
1.554413800E1,1.184013661E0,-3.381277581E0,-1.467683581E0,3.871565772E0
1.555407300E1,1.441284425E0,-2.610969484E0,-8.372993544E-1,3.097665678E0
1.556400900E1,1.689015896E0,-1.435193819E0,-2.777523914E-1,2.233764174E0
1.557394400E1,1.801510770E0,-4.466015607E-1,1.220147261E-1,1.860048817E0
1.558388000E1,1.680276355E0,3.716057575E-1,2.412897393E-1,1.737711198E0
1.559381500E1,1.642988953E0,8.565492654E-1,1.933554348E-1,1.862921273E0
1.560375100E1,1.602905267E0,1.036882074E0,2.573178345E-1,1.926302727E0
1.561368600E1,1.417357765E0,1.045364045E0,3.219973952E-1,1.790355089E0
1.562362200E1,1.173613584E0,7.812336195E-1,4.222376749E-1,1.471726696E0
1.563355700E1,8.250829129E-1,1.919044483E-1,6.179951459E-1,1.048573856E0
1.564349300E1,4.431580623E-1,-3.212425196E-1,7.440923980E-1,9.237203697E-1
1.565342800E1,-1.980766229E-2,-6.299041700E-1,7.559178069E-1,9.841663161E-1
1.566336400E1,-4.987158204E-1,-7.145724374E-1,6.670871991E-1,1.097422694E0
1.567329900E1,-8.470298521E-1,-6.274588645E-1,2.239230703E-1,1.077638965E0
1.568323500E1,-1.294744869E0,-5.602562302E-1,1.643359959E-2,1.410858385E0
1.569317100E1,-1.489623503E0,-5.224516422E-1,-6.120689929E-2,1.579772194E0
1.570310600E1,-1.541544732E0,-4.857223570E-1,1.034188262E-1,1.619562232E0
1.571304200E1,-1.562029867E0,-4.354158372E-1,4.517757618E-1,1.683337636E0
1.572297700E1,-1.535085897E0,-3.966131294E-1,1.108262836E0,1.934434595E0
1.573291300E1,-1.382935499E0,-2.369215769E-1,1.687714013E0,2.194771291E0
1.574284800E1,-1.025377604E0,-2.498480165E-1,2.257546813E0,2.492055553E0
1.575278400E1,-6.478961988E-1,-5.185737687E-1,2.917556543E0,3.033286076E0
1.576271900E1,-3.228218891E-1,-9.027188802E-1,3.225936357E0,3.365379731E0
1.577265500E1,-7.082841955E-3,-1.252120421E0,3.603071242E0,3.814443353E0
1.578259000E1,-4.804192979E-2,-1.821426387E0,3.889718125E0,4.295324109E0
1.579252600E1,-2.063917290E-1,-2.385044766E0,3.848992853E0,4.532745533E0
1.580246100E1,-2.627978450E-1,-2.834828966E0,3.154717855E0,4.249419104E0
1.581239700E1,-1.555619565E-1,-2.912691075E0,2.390516737E0,3.771278177E0
1.582233200E1,-3.528370723E-2,-2.484276693E0,1.984160392E0,3.179586151E0
1.583226800E1,-1.401546894E-1,-1.702037938E0,2.020980747E0,2.645928884E0
1.584220400E1,-3.701836781E-1,-5.619770658E-1,2.426278015E0,2.517871956E0
1.585213900E1,-5.816690994E-1,6.278599834E-1,3.439410015E0,3.544303648E0
1.586207500E1,-2.448290589E-1,1.390085474E0,4.312135018E0,4.537266501E0
1.587201000E1,2.189474918E-1,1.212685044E0,4.794758935E0,4.950581407E0
1.588194600E1,1.519591580E-1,-2.136455655E-2,4.477787222E0,4.480415877E0
1.589188100E1,3.034169903E-1,-1.047350344E0,3.451172858E0,3.619336778E0
1.590181700E1,5.375267143E-1,-1.798980095E0,2.378826398E0,3.030524606E0
1.591175200E1,4.808675601E-1,-2.488124161E0,1.294627340E0,2.845708243E0
1.592168800E1,3.792796433E-3,-2.858277470E0,3.702772701E-1,2.882164072E0
1.593162300E1,-7.053910663E-1,-2.799603000E0,-3.437462600E-1,2.907492907E0
1.594155900E1,-8.801154448E-1,-2.211121091E0,-9.439535911E-1,2.560216408E0
1.595149400E1,-3.260300736E-1,-9.604718292E-1,-1.203609581E0,1.574000561E0
1.596143000E1,-9.748477936E-2,9.219170433E-1,-1.515100114E0,1.776221460E0
1.597136500E1,-8.130975095E-1,3.636161220E0,-2.505117339E0,4.489811673E0
1.598130100E1,-2.414986019E0,7.202773318E0,-3.472805802E0,8.352992343E0
1.599123600E1,-3.119876636E0,1.005618649E1,-4.040348540E0,1.127762977E1
1.600117200E1,-1.225542341E0,1.066556109E1,-4.051779847E0,1.147488855E1
1.601110800E1,1.175403051E0,9.345972567E0,-4.124171300E0,1.028287725E1
1.602104300E1,1.939992864E0,7.659109324E0,-4.428986360E0,9.057673438E0
1.603097900E1,1.552508992E0,6.142609386E0,-4.180790474E0,7.590846015E0
1.604091400E1,7.612740026E-1,4.259953296E0,-3.623220747E0,5.643976326E0
1.605085000E1,-1.400120173E-1,2.469228299E0,-3.028379113E0,3.909958032E0
1.606078500E1,-7.595519976E-1,8.911764765E-1,-2.516132324E0,2.775254335E0
1.607072100E1,-8.782830736E-1,-4.994124430E-1,-2.151995800E0,2.377368265E0
1.608065600E1,-6.267219691E-1,-1.791631899E0,-1.817540035E0,2.627960629E0
1.609059200E1,5.037759277E-1,-2.733964496E0,-1.258292157E0,3.051499829E0
1.610052700E1,-5.752047832E-1,-2.234469023E0,-8.126720515E-1,2.446251872E0
1.611046300E1,-1.623338069E0,-2.007225173E0,-1.024577193E0,2.777397668E0
1.612039800E1,5.615081191E-3,-2.759043204E0,-4.773737025E-1,2.800042247E0
1.613033400E1,5.317943233E-1,-2.480152652E0,1.618216932E-2,2.536577269E0
1.614026900E1,7.891498724E-1,-2.332614537E0,-3.294137111E-1,2.484423775E0
1.615020500E1,1.195888917E0,-2.385892612E0,-9.694747871E-1,2.839456854E0
1.616014000E1,1.552802376E0,-2.451122981E0,-1.749105685E0,3.388003805E0
1.617007600E1,1.906974368E0,-2.298078543E0,-2.415010577E0,3.840571873E0
1.618001200E1,1.816833984E0,-1.901068972E0,-2.428212420E0,3.579268713E0
1.618994700E1,1.482746885E0,-1.599349136E0,-1.903055856E0,2.894490901E0
1.619988300E1,1.529272303E0,-1.450176725E0,-1.421318084E0,2.542013259E0
1.620981800E1,1.843431213E0,-1.354573579E0,-1.070691844E0,2.525765081E0
1.621975400E1,2.357889419E0,-1.379741165E0,-8.616053528E-1,2.864557903E0
1.622968900E1,2.842267794E0,-1.351209092E0,-8.440952808E-1,3.258335321E0
1.623962500E1,2.772021099E0,-1.387326758E0,-7.650853640E-1,3.192825101E0
1.624956000E1,2.342651576E0,-1.538454478E0,-5.550182945E-1,2.857079609E0
1.625949600E1,2.082755411E0,-1.790116886E0,-3.809718275E-1,2.772639194E0
1.626943100E1,1.978704501E0,-2.046939461E0,-3.040446889E-1,2.863158367E0
1.627936700E1,1.647177606E0,-2.271125218E0,-1.461064240E-1,2.809368418E0
1.628930200E1,1.187554004E0,-2.378220481E0,1.063558826E-1,2.660362521E0
1.629923800E1,4.443956986E-1,-2.407368851E0,4.143717080E-1,2.482864522E0
1.630917300E1,-2.943763179E-1,-2.389407958E0,7.664606291E-1,2.526537097E0
1.631910900E1,-9.427997893E-1,-2.216987602E0,1.144068553E0,2.666983001E0
1.632904500E1,-1.782653207E0,-2.119766532E0,1.089597062E0,2.976320609E0
1.633898000E1,-2.807326587E0,-1.925792170E0,1.047071140E0,3.561757434E0
1.634891600E1,-3.779526177E0,-1.803896434E0,1.351920990E0,4.400744350E0
1.635885100E1,-4.807538317E0,-1.908752798E0,1.770562043E0,5.467234389E0
1.636878700E1,-5.107020131E0,-1.770049242E0,1.981531630E0,5.756839110E0
1.637872200E1,-4.877446458E0,-2.020902979E-1,1.941972585E0,5.253720773E0
1.638865800E1,-5.273226067E0,1.306849190E0,1.498796323E0,5.635703893E0
1.639859300E1,-5.451459725E0,2.816659913E0,8.975315228E-1,6.201415083E0
