"Time (s)","Linear Acceleration x (m/s^2)","Linear Acceleration y (m/s^2)","Linear Acceleration z (m/s^2)","Absolute acceleration (m/s^2)"
4.186583334E-3,-5.419389501E-1,1.651893970E-1,-3.739563382E-1,6.788436531E-1
1.422858333E-2,-1.732646942E-1,2.099150419E-2,-6.655371022E-1,6.880413737E-1
2.427058332E-2,-6.765959412E-2,2.320526004E-2,-7.844916880E-1,7.877458431E-1
3.431258333E-2,-1.090540802E-1,-3.320838422E-2,-6.154837668E-1,6.259519601E-1
4.435458333E-2,-9.646634057E-2,-1.003776893E-1,-3.515533161E-1,3.781152859E-1
5.439658333E-2,1.401600981E-1,-1.449802503E-1,-7.080510378E-2,2.137229253E-1
6.443858333E-2,3.458566663E-1,-1.924330366E-1,1.124442959E-1,4.114499081E-1
7.448058332E-2,3.308052023E-1,-1.825500727E-1,2.307498407E-1,4.427212440E-1
8.452258333E-2,2.705059370E-1,-1.243693998E-1,2.974402589E-1,4.208466671E-1
9.456458333E-2,3.414655535E-1,-8.247906983E-2,1.496764416E-1,3.818436307E-1
1.046065833E-1,4.402611324E-1,-4.669527948E-2,3.011316061E-4,4.427306230E-1
1.146485833E-1,5.089584611E-1,-5.400576085E-2,-1.046271533E-1,5.224004006E-1
1.246905833E-1,4.391910920E-1,-3.016227722E-2,-1.719964331E-1,4.726323637E-1
1.347325833E-1,2.607263227E-1,2.888787657E-2,-2.660927510E-1,3.736550239E-1
1.447745833E-1,5.985151470E-2,1.258806127E-1,-3.765893394E-1,4.015565502E-1
1.548165833E-1,-5.521174908E-2,2.237808368E-1,-3.552241981E-1,4.234506241E-1
1.648585833E-1,-1.860407142E-1,2.747700191E-1,-2.756295598E-1,4.313714930E-1
1.749005833E-1,-1.888380222E-1,2.560130283E-1,-2.842167807E-1,4.265930704E-1
1.849425833E-1,-1.787270169E-1,2.166378781E-1,-2.887963200E-1,4.028382197E-1
1.949845833E-1,-1.997443950E-1,1.894117802E-1,-2.362339443E-1,3.627411229E-1
2.050265833E-1,-3.458609055E-1,1.973990768E-1,-9.464303255E-3,3.983412287E-1
2.150675833E-1,-4.674739279E-1,2.005217823E-1,2.203605080E-1,5.543461120E-1
2.251095833E-1,-9.215717652E-1,2.159014213E-1,2.068990481E-1,9.688731384E-1
2.351515833E-1,-1.031545613E0,5.335575512E-1,3.465697342E-1,1.211973841E0
2.451935833E-1,-1.470864174E-1,4.398684919E-1,-5.317340970E-2,4.668469940E-1
2.552355833E-1,-8.805292815E-2,2.478576243E-2,-2.953504640E-1,3.091917670E-1
2.652775833E-1,3.986850902E-2,7.364918947E-2,-2.338658220E-1,2.484087837E-1
2.753195833E-1,-1.176021248E-1,2.162712577E-1,-2.581317669E-1,3.567008912E-1
2.853615833E-1,-2.311073980E-1,1.990620250E-1,-4.067679888E-1,5.084255264E-1
2.954035833E-1,-2.076302424E-1,1.722616044E-1,-6.114222908E-1,6.682975352E-1
3.054455833E-1,-2.848893566E-1,2.031962988E-1,-7.204722780E-1,8.009562939E-1
3.154875833E-1,-5.045976077E-1,1.441771352E-1,-7.620834035E-1,9.252982794E-1
3.255295833E-1,-9.284881443E-1,2.623771378E-1,-7.251681769E-1,1.206980067E0
3.355715833E-1,-1.046623974E0,3.462355658E-1,-9.740806389E-1,1.471099555E0
3.456135833E-1,-1.124558880E0,3.913333860E-1,-1.456628543E0,1.881366845E0
3.556555833E-1,-1.162987220E0,4.007582206E-1,-1.274686580E0,1.771432274E0
3.656975833E-1,-9.159056671E-1,2.366464654E-1,-9.761552310E-1,1.359324750E0
3.757395833E-1,6.442276557E-1,-1.609477976E0,-1.209866102E0,2.114054070E0
3.857815833E-1,-2.510570745E-1,1.080930904E-1,-1.084034021E0,1.117964011E0
3.958235833E-1,-1.718076850E0,1.843458403E0,4.906901515E-1,2.567275554E0
4.058655833E-1,-2.251957168E0,1.117391801E0,5.768091130E-1,2.579260413E0
4.159075833E-1,-2.493270296E0,4.736958039E-1,-1.480398644E0,2.938088601E0
4.259495833E-1,-2.897657298E0,6.937355921E-1,-2.191853930E0,3.698906669E0
4.359915833E-1,-2.386023590E0,9.839995632E-1,-2.242090868E0,3.418820729E0
4.460335833E-1,-1.426887265E0,2.240828454E-1,-2.036683445E0,2.496857994E0
4.560755833E-1,-4.658846547E-1,-4.068711922E-1,-1.548928011E0,1.667864102E0
4.661175833E-1,8.129150033E-2,-7.385577160E-1,-6.557196271E-1,9.909813506E-1
4.761595833E-1,-4.744470980E-1,-9.184581229E-1,3.651574481E-1,1.096360039E0
4.862015833E-1,-1.558808051E0,-6.868268144E-1,1.649575549E0,2.371226077E0
4.962435833E-1,-3.115911639E0,-3.795530006E-1,3.015298600E0,4.352584459E0
5.062855833E-1,-4.277983185E0,-6.223045439E-2,4.553470657E0,6.248128343E0
5.163275833E-1,-3.559862657E0,1.705314133E-1,7.116331006E0,7.958886234E0
5.263695833E-1,-2.274656351E0,-2.018008608E-1,9.029987864E0,9.314261427E0
5.364115833E-1,-2.097589797E0,-2.871459433E-1,1.039604888E1,1.060943769E1
5.464535833E-1,-4.184194431E0,-3.087417573E-1,1.059818596E1,1.139843630E1
5.564955833E-1,-5.936819555E0,-5.070851594E-2,1.001958526E1,1.164647958E1
5.665375833E-1,-7.031170987E0,8.002543196E-1,9.409157580E0,1.177327562E1
5.765795833E-1,-7.347203053E0,9.965959275E-1,7.564394370E0,1.059219799E1
5.866215833E-1,-6.003022315E0,1.244400634E0,4.809231378E0,7.791887852E0
5.966635833E-1,-3.498762177E0,1.545212106E0,2.586025847E0,4.616984612E0
6.067055833E-1,-9.441727155E-1,1.633921676E0,9.048987222E-1,2.092845875E0
6.167475833E-1,-9.547129065E-2,2.081727178E0,2.241368152E0,3.060463038E0
6.267895833E-1,2.947926396E-1,2.500767011E0,3.145576903E0,4.029316617E0
6.368315833E-1,-1.314670718E0,2.849660429E0,3.083860711E0,4.399900061E0
6.468735833E-1,-1.912033964E0,3.516385100E0,2.143559437E0,4.540449880E0
6.569155833E-1,-2.332349659E0,4.085677325E0,9.350031120E-1,4.796545106E0
6.669575833E-1,-1.894937290E0,4.269488058E0,-2.173211253E-1,4.676167670E0
6.769992083E-1,-4.555185646E-1,4.021159733E0,-1.693461242E0,4.386916199E0
6.870412083E-1,-3.511402103E-1,5.271633285E0,-2.251577391E0,5.743084336E0
6.970832083E-1,7.685594872E-1,4.188138670E0,-4.177307580E0,5.964988502E0
7.071252083E-1,2.214358109E0,3.396235344E0,-5.121735234E0,6.532225360E0
7.171672083E-1,2.751029887E0,3.374708819E0,-4.181667849E0,6.036817958E0
7.272082083E-1,3.782109769E0,2.029389043E0,-4.270775322E0,6.054939806E0
7.372502083E-1,5.875094592E0,1.046921451E0,-2.593949409E0,6.507023477E0
7.472922083E-1,8.048357885E0,-4.182335016E-1,-1.553801665E0,8.207635684E0
7.573342083E-1,8.396228040E0,-1.750065505E0,-2.193799299E0,8.852803507E0
7.673762083E-1,7.930295584E0,-1.953612637E0,-3.029956400E0,8.711304505E0
7.774182083E-1,6.599042455E0,-2.050114499E0,-3.964394086E0,7.966602240E0
7.874602083E-1,5.535243309E0,-1.885435564E0,-4.744051296E0,7.529927520E0
7.975022083E-1,4.032781951E0,-1.927957101E0,-5.145722852E0,6.816070166E0
8.075442083E-1,2.760441858E0,-2.249604833E0,-5.864852024E0,6.861286353E0
8.175862083E-1,2.826798400E0,-2.210836039E0,-4.192929001E0,5.518988929E0
8.276282083E-1,2.769623156E0,-2.817721475E0,-3.632223705E0,5.366881383E0
8.376702083E-1,3.010210645E0,-3.699759338E0,-3.428111440E0,5.873800757E0
8.477122083E-1,4.177293839E0,-4.727140271E0,-1.957616810E0,6.605142129E0
8.577542083E-1,4.644355685E0,-5.830545825E0,-9.014383399E-1,7.508521521E0
8.677962083E-1,3.147015318E0,-6.082547371E0,-5.296004480E-1,6.868883794E0
8.778382083E-1,8.052165592E-1,-6.015724806E0,-9.184443820E-1,6.138473649E0
8.878802083E-1,-4.065804394E-1,-5.971960151E0,-2.449452431E0,6.467567774E0
8.979222083E-1,-8.829842350E-1,-5.717625566E0,-4.311187769E0,7.215070564E0
9.079642083E-1,-1.059144909E0,-5.830863329E0,-4.896299928E0,7.687295239E0
9.180062083E-1,-8.451151814E-1,-6.358120213E0,-3.111364844E0,7.128850083E0
9.280482083E-1,-1.131018153E-1,-6.550174350E0,-3.516737688E-1,6.560583090E0
9.380902083E-1,7.035915126E-1,-6.702798373E0,2.761513068E0,7.283440222E0
9.481322083E-1,1.091744452E0,-6.410196100E0,4.599544378E0,7.964818170E0
9.581742083E-1,9.118256262E-1,-4.721897950E0,5.081868918E0,6.996651908E0
9.682162083E-1,-7.689050576E-1,-2.410632766E0,5.532009798E0,6.083214424E0
9.782582083E-1,-4.031752256E0,2.169176674E-1,6.508247475E0,7.658940183E0
9.883002083E-1,-5.918128345E0,2.881589735E0,6.884421662E0,9.524865570E0
9.983422083E-1,-5.862942324E0,4.191701671E0,6.713775936E0,9.849834664E0
1.008384208E0,-4.524936830E0,3.993193377E0,7.611071523E0,9.713344244E0
1.018426208E0,-2.756450549E0,3.409282821E0,8.322189426E0,9.406384312E0
1.028468208E0,-1.057596859E0,3.452855687E0,6.552159480E0,7.481411455E0
1.038510208E0,1.481967452E0,4.124154051E0,1.820318924E0,4.745359328E0
1.048552208E0,4.703191245E0,5.036443069E0,-2.743361557E0,7.416993954E0
1.058594208E0,7.496071994E0,6.183399562E0,-3.975182784E0,1.049893345E1
1.068636208E0,8.018104976E0,6.154159391E0,-2.215502409E0,1.034756668E1
1.078678208E0,7.651193948E0,4.810805449E0,1.204784871E0,9.117901320E0
1.088720208E0,7.060070851E0,2.831860335E0,5.374589304E0,9.313981080E0
1.098762208E0,4.444340563E0,7.514935112E-1,7.429940570E0,8.690277465E0
1.108804208E0,1.539525104E0,-1.398906584E0,6.713894634E0,7.028759374E0
1.118846208E0,-3.006880948E-1,-3.697894369E0,4.556197799E0,5.875693531E0
1.128888208E0,-1.094023404E0,-5.436241761E0,6.906997177E-1,5.588083553E0
1.138930208E0,-2.208992704E0,-6.879420539E0,-3.129314335E0,7.873924302E0
1.148972208E0,6.486316323E-3,-5.367740461E0,-7.912414799E0,9.561327715E0
1.159014208E0,-6.743026632E-1,-6.001949351E0,-1.121136358E1,1.273470665E1
1.169056208E0,1.554173548E0,-6.131799054E0,-1.216882059E1,1.371475882E1
1.179098208E0,3.193165637E0,-6.117916009E0,-1.042552704E1,1.250267240E1
1.189140208E0,3.935003641E0,-6.130378180E0,-8.908926526E0,1.150803033E1
1.199182208E0,4.085086464E0,-5.880737155E0,-7.305062755E0,1.022912229E1
1.209224208E0,4.232740354E0,-5.497535200E0,-5.590959088E0,8.910544747E0
1.219266208E0,5.027326675E0,-4.829852754E0,-3.912506771E0,7.994323008E0
1.229308208E0,5.599413577E0,-4.646975822E0,-3.051499004E0,7.890466581E0
1.239350208E0,5.496023694E0,-4.331239040E0,-3.075814358E0,7.643725665E0
1.249392208E0,4.302561371E0,-2.798836430E0,-3.649691677E0,6.298076616E0
1.259434208E0,3.810935081E0,-1.719249802E0,-3.980848736E0,5.772885130E0
1.269476208E0,3.173302646E0,-1.297683095E0,-4.173595475E0,5.401178602E0
1.279518208E0,2.086688249E0,-9.192647463E-1,-3.480131779E0,4.160604850E0
1.289560208E0,1.868499981E0,-7.387027270E-1,-2.579410015E0,3.269606998E0
1.299602208E0,2.126248755E0,-7.626944375E-1,-1.832674676E0,2.908837060E0
1.309644208E0,2.577384247E0,-9.395996082E-1,-5.574434271E-1,2.799374958E0
1.319686208E0,2.490884047E0,-1.085870047E0,2.120021471E0,3.446463134E0
1.329728208E0,2.517632135E0,-1.183749513E0,5.304088840E0,5.989415072E0
1.339770208E0,2.677935306E0,-1.217244118E0,6.546340331E0,7.176879021E0
1.349812208E0,2.385599082E0,-1.152472757E0,6.003227552E0,6.561860824E0
1.359854208E0,1.670095768E0,-4.737256247E-1,4.799731115E0,5.104023375E0
1.369896208E0,5.358920521E-1,3.529408604E-1,3.372789471E0,3.433286524E0
1.379938208E0,-1.179095129E0,9.790700680E-1,2.619816906E0,3.035174484E0
1.389980208E0,-2.774067625E0,1.690463374E0,3.227622402E0,4.579373754E0
1.400022208E0,-3.365131665E0,2.139714893E0,4.115477952E0,5.730588951E0
1.410064208E0,-4.352721126E0,2.238312982E0,5.360367706E0,7.258771808E0
1.420106208E0,-4.888298013E0,2.688427550E0,7.725226715E0,9.529020304E0
1.430148208E0,-5.181496117E0,2.766332343E0,9.777336284E0,1.140599849E1
1.440189208E0,-5.610438502E0,2.451465628E0,1.118423133E1,1.275044056E1
1.450231208E0,-5.661438501E0,2.568713996E0,1.021448933E1,1.195767409E1
1.460273208E0,-5.359097691E0,2.961399550E0,7.164686894E0,9.424571802E0
1.470315208E0,-3.727638570E0,3.555036365E0,3.329129773E0,6.133243670E0
1.480357208E0,-1.528327686E0,4.313921342E0,-4.673632693E-1,4.600449031E0
1.490399208E0,1.102434039E-2,5.149215394E0,-2.205751008E0,5.601774559E0
1.500441208E0,-2.499830872E-1,5.454277498E0,-9.466422871E-1,5.541458850E0
1.510483208E0,-2.200206093E0,5.280830956E0,3.235567014E0,6.572440668E0
1.520525208E0,-3.972570248E0,4.769350444E0,7.145870554E0,9.465277810E0
1.530567208E0,-6.017321096E0,3.813908975E0,9.266059840E0,1.168819575E1
1.540609208E0,-8.388798568E0,3.042821736E0,1.061573345E1,1.386811098E1
1.550651208E0,-9.588134419E0,2.816996713E0,1.086283796E1,1.476038755E1
1.560693208E0,-9.510714945E0,2.845782848E0,9.910155787E0,1.402723660E1
1.570735208E0,-7.630521117E0,2.191610101E0,7.505843276E0,1.092546066E1
1.580777208E0,-5.051170451E0,1.488770687E0,3.064773061E0,6.092913506E0
1.590819208E0,-3.364986654E0,1.452240500E0,-2.574183481E0,4.478678181E0
1.600861208E0,-2.055895057E0,1.854556418E0,-9.007505904E0,9.423441336E0
1.610903208E0,-8.527111530E-1,2.372199018E0,-1.482826057E1,1.504100249E1
1.620945208E0,8.501032948E-2,2.964507053E0,-1.891369845E1,1.914480394E1
1.630987208E0,9.069610351E-1,3.405004413E0,-2.041239829E1,2.071430997E1
1.641029208E0,1.909560299E0,3.381755884E0,-1.951611720E1,1.989878197E1
1.651071208E0,2.967827395E0,2.769776646E0,-1.703112539E1,1.750825217E1
1.661113208E0,3.988751248E0,1.732383817E0,-1.445020182E1,1.509038180E1
1.671155208E0,5.360743682E0,6.178966203E-1,-1.238420862E1,1.350881165E1
1.681197833E0,6.908155510E0,-6.996901041E-1,-1.029302445E1,1.241605941E1
1.691239833E0,8.423709953E0,-1.669741427E0,-7.919042033E0,1.168153040E1
1.701281833E0,9.242392650E0,-2.371285975E0,-6.064925618E0,1.130611082E1
1.711323833E0,9.498613547E0,-2.751725121E0,-4.828569582E0,1.100503224E1
1.721365833E0,9.732728460E0,-3.148497295E0,-4.134007779E0,1.103308927E1
1.731407833E0,9.636952237E0,-3.216821718E0,-3.775288700E0,1.083843140E1
1.741449833E0,9.499888825E0,-4.235267813E0,-2.660688359E0,1.073613728E1
1.751491833E0,8.824875725E0,-4.321942260E0,-8.984252697E-1,9.867359547E0
1.761533833E0,6.551111074E0,-3.189628072E0,2.002206507E0,7.556428683E0
1.771575833E0,4.521770563E0,-2.947920257E0,5.129295684E0,7.446228379E0
1.781617833E0,2.661379500E0,-2.616807052E0,7.113099250E0,8.032857582E0
1.791659833E0,1.633485181E0,-2.232554937E0,7.839905816E0,8.313645325E0
1.801701833E0,1.904126481E0,-2.143173521E0,7.047878821E0,7.608645496E0
1.811743833E0,2.158345292E0,-2.066023311E0,5.332639625E0,6.112605998E0
1.821785833E0,2.408822469E0,-2.609089605E0,4.040376315E0,5.379071947E0
1.831827833E0,3.863405070E0,-4.555752533E0,2.532131768E0,6.487871082E0
1.841869833E0,5.191857383E0,-5.931699148E0,2.887451568E0,8.395106576E0
1.851911833E0,6.539466344E0,-7.082793716E0,4.170343839E0,1.050344489E1
1.861953833E0,8.175496818E0,-8.739203491E0,4.019450884E0,1.262412022E1
1.871995833E0,7.383302593E0,-8.957392927E0,3.152195659E0,1.202848214E1
1.882037833E0,6.420609407E0,-9.311112052E0,1.818139667E0,1.145542075E1
1.892079833E0,5.654096153E0,-1.058718852E1,-1.242593260E0,1.206654060E1
1.902121833E0,4.786771638E0,-1.205374271E1,-4.098116984E0,1.360148737E1
1.912163833E0,4.451954223E0,-1.284353548E1,-6.543852925E0,1.508636176E1
1.922205833E0,3.698531715E0,-1.386521245E1,-9.276286036E0,1.708720972E1
1.932247833E0,2.348165208E0,-1.585365754E1,-9.724064641E0,1.874592677E1
1.942289833E0,1.294672948E-1,-1.840970354E1,-8.049885178E0,2.009314803E1
1.952331833E0,-2.015147565E0,-2.101660512E1,-4.513080431E0,2.158996076E1
1.962373833E0,-3.085157039E0,-2.338171030E1,1.551676349E-1,2.358488175E1
1.972415833E0,-4.677963141E0,-2.651304163E1,5.716519858E0,2.752277811E1
1.982457833E0,-8.496539363E0,-2.927974293E1,1.281000287E1,3.306948292E1
1.992499833E0,-1.542213770E1,-3.023819279E1,1.639978047E1,3.769805610E1
2.002541833E0,-2.719834232E1,-2.788006217E1,1.811207793E1,4.295456971E1
2.012583833E0,-4.506955238E1,-2.059349826E1,1.712747581E1,5.242811412E1
2.022625833E0,-5.828456381E1,-8.790723308E0,1.227383658E1,6.020809131E1
2.032667833E0,-5.426594090E1,2.764312130E0,6.840069362E0,5.476513774E1
2.042709833E0,-4.128975314E1,6.594316735E0,2.956961514E0,4.191744683E1
2.052751833E0,-2.866477723E1,6.275068701E0,8.740990984E-1,2.935660045E1
2.062793833E0,-1.619032735E1,6.145041243E0,-2.881858706E-1,1.731967906E1
2.072835833E0,-6.121187527E0,6.591534630E0,-1.859415162E0,9.185569675E0
2.082877833E0,-1.067268884E0,7.848295986E0,-3.990301929E0,8.868896337E0
2.092919833E0,-6.502752846E-1,1.008626106E1,-6.623027734E0,1.208387423E1
2.102961833E0,-1.387259515E0,1.236494088E1,-6.977261998E0,1.426528783E1
2.113003833E0,-2.559306411E0,1.403388942E1,-9.458715656E0,1.711629059E1
2.123045833E0,-5.682529993E0,1.657807961E1,-2.114428492E1,2.746278674E1
2.133087833E0,-5.500849401E0,1.833838388E1,-2.726893692E1,3.331892238E1
2.143129833E0,-1.530163711E-1,1.224364858E1,-1.599531686E1,2.014399429E1
2.153171833E0,3.647058676E0,9.973883421E0,-2.366854224E0,1.088032106E1
2.163213833E0,3.787394775E0,1.017884938E1,-5.462609196E-1,1.087436135E1
2.173255833E0,2.723741809E0,9.168684404E0,-4.510618753E0,1.057493379E1
2.183297833E0,3.672550782E0,9.050339098E0,-5.111403204E0,1.102373393E1
2.193339833E0,-2.766645169E-1,7.319369137E0,-3.536524665E0,8.133677799E0
2.203381833E0,5.815091050E-1,5.987876857E0,4.380634564E-1,6.031974941E0
2.213423833E0,7.904517549E-1,6.054103006E0,1.174469982E0,6.217423656E0
2.223465833E0,-1.296054060E0,6.213670598E0,1.934665758E0,6.635690621E0
2.233507833E0,-1.800671695E0,6.669528301E0,1.067626149E0,6.990339899E0
2.243549833E0,-1.772175289E0,6.282309893E0,6.781396061E-2,6.527834371E0
2.253591833E0,-8.746265173E-3,4.947788170E0,-5.339917070E-1,4.976528048E0
2.263633833E0,2.032456493E0,3.239099609E0,-2.829094017E0,4.756723519E0
2.273675833E0,2.889468858E0,1.398225383E0,-1.731737992E0,3.647325181E0
2.283717833E0,4.837431915E0,5.020536304E-1,-1.015626860E0,4.968330031E0
2.293759833E0,4.422543898E0,-2.679895878E-1,3.385649545E0,5.576139864E0
2.303801833E0,3.317046502E0,6.122268677E-1,5.109186525E0,6.122205990E0
2.313843833E0,5.496350554E0,-6.317963290E-1,-6.665832276E0,8.662699114E0
2.323885833E0,8.738850904E-1,-2.102235995E0,-1.329175906E0,2.636243524E0
2.333927833E0,-1.607835785E0,-8.497015911E-1,1.437546154E0,2.318117264E0
2.343969833E0,-1.715473085E0,3.958407122E-1,-2.803976425E0,3.310864172E0
2.354011833E0,-5.096277627E0,-7.136643648E-2,-1.320269427E0,5.265002391E0
2.364053833E0,-1.164634848E1,-3.302811456E-1,3.427760607E-1,1.165607198E1
2.374095833E0,-1.585973046E1,-4.111916998E0,3.570657202E0,1.676867629E1
2.384137833E0,-1.467988864E1,-1.314517462E1,2.210979296E0,1.982884706E1
2.394179833E0,-1.578380202E1,-1.500987976E1,7.370646295E-1,2.179376427E1
2.404221833E0,-2.314814677E1,-1.156137323E1,-6.931061393E-1,2.588401913E1
2.414263833E0,-2.772441397E1,-6.047576344E0,2.465601271E-1,2.837740477E1
2.424305833E0,-3.228654494E1,-5.474667324E0,1.658504248E-1,3.274783157E1
2.434347833E0,-2.678381917E1,-4.176657370E0,-9.077118176E-1,2.712270961E1
2.444389833E0,-2.083834456E1,-5.482957506E-1,-1.616766238E0,2.090816026E1
2.454431833E0,-2.005953988E1,1.587241892E0,8.455597744E0,2.182662617E1
2.464473833E0,-4.751461473E0,2.847342592E-1,1.814031881E1,1.875442951E1
2.474515833E0,1.464645777E1,-3.504956133E0,1.212477819E1,1.933426205E1
2.484557833E0,1.929804997E1,-5.470239812E-1,8.561949241E0,2.111920791E1
2.494599833E0,2.111544411E1,1.409888824E0,1.767536693E0,2.123614731E1
2.504641833E0,2.290027863E1,-1.254681501E0,-4.059976181E0,2.329120850E1
2.514683833E0,2.098068918E1,1.504545890E0,-7.187247207E0,2.222857394E1
2.524725833E0,1.542397373E1,3.853544911E0,-1.544933778E1,2.216823881E1
2.534767833E0,1.387100471E1,7.653756198E0,-1.376188397E0,1.590215866E1
2.544809833E0,2.757854231E1,-8.931827731E0,8.773423151E0,3.028739831E1
2.554851833E0,2.876872669E1,-1.147757445E1,1.873374805E0,3.103037034E1
2.564893833E0,2.040284160E1,-3.471478192E0,-2.655396044E-1,2.069776842E1
2.574935833E0,1.280268449E1,-9.457856700E-1,-1.839322960E0,1.296866800E1
2.584977833E0,5.372086111E0,-4.854305810E-1,-8.696791881E-1,5.463633766E0
2.595019833E0,4.743904531E-2,-2.379442549E-1,-7.648719406E-1,8.024319392E-1
2.605061833E0,-3.263309421E0,-2.048858517E-1,2.366040730E0,4.036002394E0
2.615103833E0,-4.388149990E0,6.172794467E-1,1.643590339E0,4.726339330E0
2.625145833E0,-6.290327010E0,1.041540551E0,6.282295275E-1,6.406847349E0
2.635187833E0,-6.375792253E0,2.185414976E0,-1.127248453E0,6.833553581E0
2.645229833E0,-3.382917725E0,4.187105759E0,-3.346057463E0,6.338145432E0
2.655271833E0,-5.182936871E-1,4.739258333E0,-2.262397664E0,5.277086420E0
2.665313833E0,3.342352082E0,4.708635296E0,4.596963636E-1,5.792571496E0
2.675355833E0,6.111312749E0,4.637285816E0,2.032841824E0,7.936309541E0
2.685397083E0,7.384127051E0,4.960515220E0,2.145363303E0,9.150662667E0
2.695439083E0,7.727250436E0,5.272223269E0,1.992318281E0,9.564312293E0
2.705481083E0,7.452908433E0,5.720261491E0,1.554565458E0,9.522809953E0
2.715523083E0,7.024464816E0,6.028519683E0,1.225142684E0,9.337404892E0
2.725565083E0,7.090288092E0,6.017100656E0,6.763215606E-1,9.323899205E0
2.735607083E0,7.337907735E0,5.837460743E0,8.297267716E-1,9.413250467E0
2.745649083E0,7.458417680E0,5.742081546E0,1.231705745E0,9.492976025E0
2.755691083E0,6.803355864E0,5.710103123E0,3.058598693E0,9.393931800E0
2.765733083E0,6.243338785E0,5.564047278E0,4.042100658E0,9.288513284E0
2.775775083E0,6.038169928E0,5.754165986E0,3.271763618E0,8.959595942E0
2.785817083E0,5.408264004E0,6.349489723E0,1.746349307E0,8.521447951E0
2.795859083E0,5.022124407E0,6.807423187E0,-2.845662980E-1,8.464261456E0
2.805901083E0,3.558225437E0,6.162648963E0,-6.917815988E-1,7.149669383E0
2.815943083E0,-3.266372193E0,3.941349040E0,1.328556393E0,5.288523579E0
2.825985083E0,-7.328186738E0,-8.962506902E-1,8.375376284E-1,7.430145049E0
2.836027083E0,-8.648566386E0,-7.181129265E0,-6.319553733E-2,1.124145505E1
2.846069083E0,-1.102862991E1,-1.242935381E1,-2.368495392E0,1.678479324E1
2.856111083E0,-1.432014688E1,-1.662398376E1,-4.355707884E-2,2.194140698E1
2.866153083E0,-9.505239027E0,-9.814073170E0,6.325976315E0,1.505601466E1
2.876195083E0,-1.782313338E0,-2.943725055E1,8.262402231E0,3.062671467E1
2.886237083E0,7.175462143E0,-1.242512931E2,1.521657182E0,1.244676124E2
2.896279083E0,-6.300588289E-1,-7.078557408E1,-5.810186990E0,7.102642286E1
2.906321083E0,5.208769870E0,-1.351546593E1,-3.133839203E0,1.481958336E1
2.916363083E0,4.429202707E0,-2.512531024E-1,4.494576917E0,6.315234469E0
2.926405083E0,-5.689446080E-1,6.243435264E0,5.154714700E0,8.116357896E0
2.936447083E0,-2.995641430E0,1.152475446E1,6.163704386E0,1.340839605E1
2.946489083E0,-1.693452471E0,1.967740562E1,3.816747213E0,2.011555698E1
2.956531083E0,2.834017957E0,2.608746724E1,-8.362080885E0,2.754109659E1
2.966573083E0,3.868721359E0,2.528078771E1,-8.843813102E0,2.706101000E1
2.976615083E0,8.811508405E-1,2.064081393E1,-5.148374564E0,2.129143929E1
2.986657083E0,-1.965866647E0,1.601053249E1,-4.086886822E0,1.664044549E1
2.996699083E0,-3.974263601E0,1.280682198E1,-4.808799854E0,1.424549109E1
3.006741083E0,-5.325989587E0,1.085324735E1,-4.489409148E0,1.289627612E1
3.016783083E0,-6.830123833E0,9.494067922E0,-3.280689685E0,1.214705076E1
3.026825083E0,-7.864291629E0,8.515231158E0,-2.152284068E0,1.178934142E1
3.036867083E0,-7.624903112E0,8.100633747E0,-2.501697230E-1,1.112753340E1
3.046909083E0,-6.262840419E0,8.096684538E0,1.639102601E0,1.036658709E1
3.056951083E0,-4.985426112E0,8.148027184E0,2.646788358E0,9.912129394E0
3.066993083E0,-4.811060680E0,8.205602378E0,2.428006014E0,9.816996916E0
3.077035083E0,-4.280478192E0,7.909462540E0,1.765607112E0,9.165121914E0
3.087077083E0,-3.578085505E0,7.571536744E0,9.315308891E-2,8.374935346E0
3.097119083E0,-3.453719613E0,7.389733946E0,-7.256442133E-1,8.189194495E0
3.107161083E0,-3.960117140E0,7.117409232E0,4.207480236E-1,8.155799828E0
3.117203083E0,-4.122892222E0,6.987112802E0,9.054693373E-1,8.163201596E0
3.127245083E0,-4.744882478E0,7.047516879E0,-1.266746646E-1,8.496908282E0
3.137287083E0,-5.621649953E0,6.989580912E0,-2.624104085E0,9.345753676E0
3.147329083E0,-5.921923188E0,7.069257996E0,-3.716541724E0,9.942648804E0
3.157371083E0,-4.891428612E0,7.532324147E0,-7.898208404E-1,9.015863679E0
3.167413083E0,-1.685022832E0,7.650311603E0,-1.222579045E0,7.928509891E0
3.177455083E0,1.764442054E0,7.021317260E0,-2.135485017E0,7.548009544E0
3.187497083E0,2.721241247E0,5.461543248E0,3.189055045E0,6.885033090E0
3.197539083E0,4.848964086E0,1.737194322E0,1.009524194E0,5.248755654E0
3.207581083E0,9.743228890E0,-1.144447570E1,2.128867139E0,1.518020450E1
3.217623083E0,3.035907111E1,-6.316908920E1,2.056228348E0,7.011586913E1
3.227665083E0,4.020379889E1,-7.823644710E1,4.701618637E0,8.808741293E1
3.237707083E0,1.717086098E1,-3.646944889E1,5.527128543E0,4.068670937E1
3.247749083E0,5.145745656E0,-2.376939473E1,-3.139451945E0,2.452180627E1
3.257791083E0,2.831700706E0,-1.620926532E1,-2.827071465E0,1.669584212E1
3.267833083E0,2.480531552E0,-1.122731011E1,-8.555318499E-1,1.152985099E1
3.277875083E0,2.874623947E0,-8.880925965E0,-1.365922440E0,9.433983938E0
3.287917083E0,2.062962002E0,-6.725229462E0,-1.208649881E0,7.137601703E0
3.297959083E0,4.095220274E-1,-4.255504149E0,-1.350952399E0,4.483536131E0
3.308001083E0,-1.050193260E0,-2.189081181E0,-1.830820524E0,3.040869298E0
3.318043083E0,-1.366356304E0,9.049145097E-1,-3.320563018E0,3.702963485E0
3.328085083E0,-9.750708649E-1,4.286597303E0,-5.760993780E0,7.246704697E0
3.338127083E0,-1.483116137E0,7.010421558E0,-6.455268193E0,9.644487096E0
3.348169083E0,-2.540171982E0,8.941002597E0,-5.613349246E0,1.085834660E1
3.358211083E0,-3.606617286E0,9.776674379E0,-5.509045444E0,1.178730808E1
3.368253083E0,-4.852111642E0,9.732045506E0,-5.083492105E0,1.200406552E1
3.378295083E0,-5.938143364E0,9.188492432E0,-3.087083697E0,1.136749865E1
3.388337083E0,-6.604273374E0,8.710273222E0,-1.623947203E0,1.105090453E1
3.398379083E0,-6.884014696E0,8.408077422E0,-1.326113427E0,1.094732849E1
3.408421083E0,-7.036581416E0,8.151244907E0,-1.531241938E0,1.087662509E1
3.418463083E0,-6.826881552E0,7.808681100E0,-2.137102357E0,1.059004338E1
3.428505083E0,-6.167302762E0,7.532979035E0,-2.432782019E0,1.003493024E1
3.438547083E0,-4.749446814E0,7.595762928E0,-1.656906788E0,9.110334769E0
3.448589083E0,-3.029364662E0,8.294398779E0,3.606954378E-1,8.837658206E0
3.458631083E0,-2.359524593E0,9.403495721E0,2.645242354E0,1.004939775E1
3.468673083E0,-2.326354508E0,1.017645202E1,4.125717012E0,1.122468894E1
3.478715083E0,-2.373603227E0,1.044439717E1,3.701371708E0,1.133223619E1
3.488757083E0,-2.711271452E0,1.022988388E1,1.988468474E0,1.076826467E1
3.498799083E0,-3.038989763E0,9.874401233E0,3.681921530E-1,1.033802805E1
3.508841083E0,-3.117195688E0,9.570767019E0,-1.652797365E-1,1.006696616E1
3.518883083E0,-3.306817383E0,9.228274548E0,-3.208952864E-2,9.802913958E0
3.528925083E0,-3.585248636E0,8.865332610E0,3.976808310E-2,9.562934255E0
3.538967083E0,-3.809315694E0,8.603313614E0,6.088237882E-2,9.409123119E0
3.549010083E0,-3.795816227E0,8.592236064E0,-1.977680361E-1,9.395416628E0
3.559052083E0,-3.555294520E0,8.981731378E0,-6.381908441E-1,9.680852505E0
3.569094083E0,-3.277699711E0,9.609355718E0,-1.267672845E0,1.023181446E1
3.579136083E0,-3.024121756E0,1.012596365E1,-1.360188661E0,1.065507229E1
3.589178083E0,-2.737281622E0,1.014922505E1,-1.863905239E0,1.067584294E1
3.599220083E0,-2.177977611E0,9.088769923E0,-3.866148584E0,1.011416977E1
3.609262083E0,-8.891261503E-1,7.820461485E0,-5.131703568E0,9.395985561E0
3.619304083E0,2.261606243E0,6.343612102E0,-3.294766856E0,7.497450629E0
3.629346083E0,3.172336393E0,3.217318146E0,3.399414475E0,5.654279178E0
3.639388083E0,1.086068267E0,-1.594166749E0,9.780013139E0,9.968428608E0
3.649430083E0,8.244601552E0,-1.859698518E1,1.354867694E0,2.038766733E1
3.659472083E0,2.492147864E1,-5.425110768E1,-7.066610377E0,6.011821491E1
3.669514083E0,2.714629508E1,-6.201038156E1,1.783037077E0,6.771549290E1
3.679556625E0,1.016678540E1,-3.945594469E1,2.308091607E0,4.081007699E1
3.689598625E0,1.551903659E-1,-2.596832671E1,-7.262405562E-1,2.597894343E1
3.699640625E0,3.320092609E0,-2.020373923E1,1.387838974E0,2.052170049E1
3.709682625E0,7.457488557E0,-1.674793655E1,1.678362561E0,1.840989992E1
3.719724625E0,8.407438906E0,-1.418108723E1,6.397590673E-1,1.649841070E1
3.729766625E0,7.088468438E0,-9.921252633E0,1.152347041E0,1.224767498E1
3.739808625E0,4.595361572E0,-5.292707820E0,1.638265865E0,7.198195544E0
3.749850625E0,1.994101389E0,-1.706929134E0,1.652203288E0,3.101583970E0
3.759892625E0,1.661913174E-1,8.509306759E-1,6.653780580E-1,1.092900055E0
3.769934625E0,-9.063318747E-1,2.690469983E0,-1.409021682E0,3.169449210E0
3.779976625E0,-1.629389791E0,4.858960778E0,-4.023760867E0,6.515754941E0
3.790018625E0,-2.301073487E0,7.385249716E0,-5.913640607E0,9.736939858E0
3.800060625E0,-3.028949217E0,9.217579406E0,-5.758738509E0,1.128279100E1
3.810102625E0,-3.569239837E0,1.006876034E1,-4.279036853E0,1.150780449E1
3.820144625E0,-4.239619311E0,1.036365063E1,-2.607792692E0,1.149696521E1
3.830186625E0,-5.096328498E0,1.012338503E1,-1.068494461E0,1.138407524E1
3.840228625E0,-5.940472895E0,9.601595294E0,-3.179886172E-1,1.129517451E1
3.850270625E0,-6.348421437E0,9.082884116E0,-5.247250396E-1,1.109398824E1
3.860312625E0,-6.397704694E0,8.596841916E0,-1.860750082E0,1.087652091E1
3.870354625E0,-5.415316331E0,8.069050596E0,-2.615218656E0,1.006352806E1
3.880396625E0,-4.338553030E0,7.534270685E0,-2.681075261E0,9.098155951E0
3.890438625E0,-4.467146459E0,8.127040942E0,-3.141128342E0,9.791367587E0
3.900480625E0,-3.722532489E0,8.731084047E0,-2.261695413E0,9.757271284E0
3.910522625E0,-2.586527538E0,8.846389970E0,-6.680537438E-1,9.240943459E0
3.920564625E0,-2.165038015E0,9.124811575E0,-8.336714494E-1,9.415125277E0
3.930606625E0,-2.773352510E0,9.474372160E0,-1.608537451E0,1.000213001E1
3.940648625E0,-2.935455747E0,9.395749914E0,-1.437369568E0,9.948017298E0
3.950690625E0,-2.596630650E0,9.037348924E0,-5.014963907E-1,9.416350935E0
3.960732625E0,-3.224195934E0,8.871527735E0,3.646797305E-1,9.446292134E0
3.970774625E0,-4.488333845E0,8.789526383E0,1.353469625E0,9.961565879E0
3.980816625E0,-5.400662624E0,8.509165841E0,2.461787717E0,1.037465464E1
3.990858625E0,-5.701048125E0,8.278302564E0,2.954281150E0,1.047664165E1
4.000900625E0,-5.322927400E0,8.286195136E0,2.576482022E0,1.018002188E1
4.010942625E0,-4.648507792E0,8.366768013E0,1.589467342E0,9.702465569E0
4.020984625E0,-4.115385566E0,8.521005868E0,2.607612598E-1,9.466358106E0
4.031026625E0,-3.737343194E0,8.728800709E0,-5.818973601E-1,9.513059472E0
4.041068625E0,-3.295167683E0,8.665377715E0,-1.141295731E0,9.340741777E0
4.051110625E0,-2.563687145E0,7.922523465E0,-3.071793813E0,8.875516157E0
4.061152625E0,-4.544134408E-1,6.733293357E0,-5.308925657E0,8.586525644E0
4.071194625E0,3.409594477E0,4.535740145E0,-5.776277232E0,8.097138496E0
4.081236625E0,4.539456343E0,3.998144799E-1,-2.026022801E0,4.987111780E0
4.091278625E0,7.652898996E0,-9.936396922E0,-2.905284991E0,1.287398647E1
4.101320625E0,1.639440454E1,-3.276923727E1,-9.094430612E0,3.775325257E1
4.111362625E0,2.335435468E1,-5.945140610E1,-5.415032741E0,6.410318362E1
4.121404625E0,1.593396554E1,-5.105175920E1,3.758520055E0,5.361249712E1
4.131446625E0,3.206316025E0,-2.733129163E1,4.997157966E0,2.796876029E1
4.141488625E0,3.654005460E0,-1.923535378E1,3.437564049E0,1.987881882E1
4.151530625E0,7.539307476E0,-1.602476227E1,2.072445016E0,1.783056902E1
4.161572625E0,1.084259373E1,-1.521006387E1,9.957049580E-1,1.870559569E1
4.171614625E0,9.344873875E0,-1.254411360E1,1.961079093E0,1.576474817E1
4.181656625E0,6.729227203E0,-7.729028574E0,2.947929904E0,1.066352063E1
4.191698625E0,3.443424713E0,-3.927330340E0,3.247773954E0,6.150539245E0
4.201740625E0,-1.654323488E-1,-1.724789454E0,2.463385177E0,3.011732566E0
4.211782625E0,-2.586899714E0,-7.497054327E-1,7.691181886E-1,2.801008952E0
4.221824625E0,-4.179717802E0,5.472450060E-1,-1.439302658E0,4.454336106E0
4.231866625E0,-4.824966820E0,3.119783081E0,-3.917668986E0,6.954241984E0
4.241908625E0,-3.923449543E0,5.954507382E0,-5.744111114E0,9.156660252E0
4.251951625E0,-2.915947974E0,8.065772063E0,-5.857076982E0,1.038579714E1
4.261993625E0,-2.095919833E0,9.071047597E0,-4.985409155E0,1.056082804E1
4.272035625E0,-1.144529314E0,8.411683400E0,-3.543745977E0,9.199157599E0
4.282077625E0,-4.653517394E0,8.320972036E0,-2.977697495E0,9.988016927E0
4.292119625E0,-7.043600414E0,9.141158051E0,-2.396241599E0,1.178622294E1
4.302161625E0,-7.109203250E0,8.912807908E0,-2.270172122E0,1.162465471E1
4.312203625E0,-6.471752079E0,8.153562743E0,-2.792553012E0,1.077787144E1
4.322245625E0,-5.224638044E0,7.389468482E0,-4.104513838E0,9.937208913E0
4.332287625E0,-4.411435650E0,7.023216435E0,-5.307569688E0,9.846655756E0
4.342329625E0,-4.107105324E0,7.006577598E0,-5.128519759E0,9.605319292E0
4.352371625E0,-3.805946236E0,7.517260550E0,-3.779964134E0,9.234855807E0
4.362413625E0,-3.825011375E0,8.497668461E0,-2.324788039E0,9.604463583E0
4.372455625E0,-3.859871598E0,9.254140876E0,-5.437548029E-1,1.004158361E1
4.382497625E0,-3.624253658E0,9.330529486E0,1.399930431E0,1.010711632E1
4.392539625E0,-3.411567913E0,9.299888322E0,2.963561851E0,1.033970102E1
4.402581625E0,-3.058094956E0,9.624107659E0,3.966127201E0,1.084921923E1
4.412623625E0,-3.368520126E0,1.000432403E1,4.699787289E0,1.155514723E1
4.422665625E0,-4.241992988E0,9.836520631E0,4.611948076E0,1.166283446E1
4.432707625E0,-4.676231781E0,9.313243362E0,3.243379186E0,1.091435542E1
4.442749625E0,-4.818043717E0,8.823464207E0,1.562626283E0,1.017393074E1
4.452791625E0,-4.629025162E0,8.628839049E0,1.101401421E0,9.853822729E0
4.462833625E0,-4.047879462E0,8.688513978E0,8.575947475E-1,9.623464659E0
4.472875625E0,-2.862679547E0,9.004125629E0,-1.861449226E-1,9.450072088E0
4.482917625E0,-1.161811929E0,9.716301877E0,-2.219757428E0,1.003412439E1
4.492959625E0,5.895110196E-1,1.020793343E1,-4.617525151E0,1.121922309E1
4.503001625E0,1.583945816E0,9.583934364E0,-5.087068262E0,1.096535206E1
4.513043625E0,1.918328491E0,8.391374851E0,-1.225855825E0,8.694704054E0
4.523085625E0,2.154470927E0,5.994515201E0,4.034872330E0,7.540301863E0
4.533127625E0,1.390564654E0,2.221194674E0,5.943985902E0,6.496025265E0
4.543169625E0,4.181736554E0,-5.444521419E0,-4.631229855E0,8.281184942E0
4.553211625E0,1.287126999E1,-2.086941199E1,-1.296934534E1,2.773816625E1
4.563253625E0,2.014349186E1,-3.919266562E1,-2.011055245E0,4.411201249E1
4.573295625E0,2.257431740E1,-5.245013251E1,7.919537584E-1,5.710729724E1
4.583337625E0,1.096967243E1,-4.114484043E1,-7.997703163E-1,4.258956726E1
4.593379625E0,4.241900602E-1,-2.804151315E1,-2.101875222E0,2.812337598E1
4.603421625E0,1.496404519E0,-2.371335501E1,2.075960362E0,2.385103863E1
4.613463625E0,5.940913775E0,-2.039880702E1,7.419179647E-1,2.125926214E1
4.623505625E0,7.772068174E0,-1.770723543E1,-1.201837436E-1,1.933819212E1
4.633547625E0,6.909327292E0,-1.275082788E1,1.926624813E0,1.462991108E1
4.643589625E0,5.558752039E0,-7.886757801E0,2.474059854E0,9.961006225E0
4.653631625E0,3.028280295E0,-3.686118076E0,1.523300250E0,5.007833032E0
4.663673625E0,4.401801485E-1,-5.948787636E-1,9.111599207E-2,7.456148003E-1
4.673715625E0,-1.363776512E0,1.329479084E0,-1.266636134E0,2.287305862E0
4.683757750E0,-1.942871302E0,3.168314971E0,-3.168653525E0,4.883987491E0
4.693799750E0,-2.278008268E0,5.336972997E0,-4.834159813E0,7.552595814E0
4.703841750E0,-2.605025205E0,7.114841135E0,-5.016981196E0,9.087200945E0
4.713883750E0,-2.692155150E0,8.632132201E0,-3.885612211E0,9.841716717E0
4.723925750E0,-2.647643806E0,9.635416759E0,-2.254727286E0,1.024378197E1
4.733967750E0,-3.559268580E0,9.784947020E0,-2.364233356E0,1.067722719E1
4.744009750E0,-5.943932108E0,9.419095507E0,-2.119197598E0,1.133757856E1
4.754051750E0,-7.029947750E0,9.676992216E0,-1.750696127E0,1.208839446E1
4.764093750E0,-6.756424942E0,9.256267508E0,-7.008659792E-1,1.148124468E1
4.774135750E0,-5.598836457E0,8.667507856E0,1.275295275E-1,1.031934716E1
4.784178750E0,-4.380445699E0,8.236534148E0,-5.054293010E-1,9.342604459E0
4.794220750E0,-3.622006573E0,7.900243819E0,-1.956770280E0,8.908520301E0
4.804262750E0,-3.147942979E0,7.600051276E0,-2.740508115E0,8.670681007E0
4.814304750E0,-2.610275712E0,7.751357337E0,-2.927806712E0,8.687297163E0
4.824346750E0,-1.571427805E0,8.195058094E0,-2.295799883E0,8.654424279E0
4.834388750E0,-1.351433040E0,9.004153111E0,-7.011817288E-1,9.131965852E0
4.844430750E0,-2.158047084E0,9.691935945E0,3.113293329E-2,9.929338288E0
4.854472750E0,-3.501810038E0,9.674413594E0,3.790077478E-1,1.029565922E1
4.864514750E0,-4.415725459E0,8.909308934E0,-2.126745623E-2,9.943584330E0
4.874556750E0,-4.880793112E0,8.416043669E0,-3.497195927E-1,9.735206019E0
4.884598750E0,-5.233163284E0,8.124320233E0,7.354212695E-1,9.691822411E0
4.894640750E0,-5.701157468E0,7.835680618E0,1.367960780E0,9.786337615E0
4.904682750E0,-6.047537168E0,7.587659857E0,7.614957583E-1,9.732685328E0
4.914724750E0,-5.692056277E0,7.452582743E0,-4.196219230E-1,9.387043025E0
4.924766750E0,-4.838948975E0,7.461471680E0,-1.541045380E0,9.025730313E0
4.934808750E0,-4.284996920E0,7.794165387E0,-2.223345280E0,9.168068331E0
4.944850750E0,-4.327488636E0,8.223892468E0,-2.452788852E0,9.611229806E0
4.954892750E0,-4.400191746E0,8.928748587E0,-2.500617907E0,1.026339752E1
4.964934750E0,-4.319758033E0,9.729274510E0,-2.209055854E0,1.087193726E1
4.974976750E0,-3.740673183E0,9.983333691E0,-2.362234193E0,1.091969495E1
4.985018750E0,-1.987776749E0,9.579855346E0,-3.088735535E0,1.025988168E1
4.995060750E0,2.844845831E0,7.758268746E0,-5.414603555E0,9.879363005E0
5.005102750E0,5.327560734E0,3.543813220E0,-3.627054766E0,7.355069122E0
5.015144750E0,4.532975874E0,-2.418575624E0,8.544712380E-1,5.208406611E0
5.025186750E0,1.151051064E1,-2.217859656E1,-4.895353264E0,2.546264881E1
5.035228750E0,2.187761932E1,-6.395350955E1,-3.763253961E0,6.769670370E1
5.045270750E0,2.243335039E1,-7.262948184E1,3.447542907E0,7.609324802E1
5.055312750E0,5.245896181E0,-3.541142329E1,3.899882340E0,3.600968492E1
5.065354750E0,2.028334790E-1,-2.033151259E1,1.813974841E0,2.041328122E1
5.075396750E0,5.823254347E0,-1.459702190E1,3.975447078E0,1.621072235E1
5.085438750E0,1.005209929E1,-1.188558380E1,1.116047600E0,1.560632451E1
5.095480750E0,1.088235947E1,-1.167632716E1,1.432959452E0,1.602547148E1
5.105522750E0,7.842276278E0,-8.946025940E0,3.599395097E0,1.242933314E1
5.115564750E0,4.487627209E0,-5.122889475E0,4.062558897E0,7.930143714E0
5.125606750E0,1.942404694E0,-2.142009925E0,2.516229973E0,3.833086979E0
5.135648750E0,-5.642811611E-1,-5.966159713E-1,5.257839704E-1,9.750962155E-1
5.145690750E0,-2.126164848E0,3.861635703E-1,-1.411329578E0,2.580997955E0
5.155732750E0,-2.775215433E0,2.515691444E0,-3.766315563E0,5.311841212E0
5.165774750E0,-3.324436798E0,4.946685385E0,-5.126958552E0,7.861760637E0
5.175816750E0,-3.458979768E0,6.939263867E0,-5.300934852E0,9.392434954E0
5.185858750E0,-2.651772232E0,8.109992216E0,-5.020924559E0,9.900179450E0
5.195900750E0,-1.919732700E0,8.015185461E0,-3.931961335E0,9.131751834E0
5.205942750E0,-5.960406638E0,9.487168792E0,-4.089878842E0,1.192727663E1
5.215984750E0,-7.612279558E0,1.019776512E1,-1.997356973E0,1.288140708E1
5.226026750E0,-7.540896749E0,9.685246730E0,1.135050977E0,1.232710301E1
5.236069750E0,-7.239603760E0,8.649020714E0,-6.281535137E-1,1.129654809E1
5.246111750E0,-6.443060376E0,7.808592222E0,-4.945769711E0,1.126711043E1
5.256153750E0,-4.804817023E0,7.343425167E0,-7.275540163E0,1.139937035E1
5.266195750E0,-3.439416739E0,7.162148033E0,-6.663467077E0,1.036955859E1
5.276237750E0,-2.727897425E0,7.532239947E0,-4.479346089E0,9.178268048E0
5.286279750E0,-2.601388237E0,8.585984221E0,-1.780440329E0,9.146382540E0
5.296321750E0,-3.112529902E0,9.372845201E0,4.207305551E-1,9.885094018E0
5.306363750E0,-3.250143830E0,9.320111502E0,2.089094962E0,1.008921360E1
5.316405750E0,-3.016587034E0,9.516896621E0,3.841870944E0,1.069724689E1
5.326447750E0,-2.746601206E0,9.762143463E0,5.065597286E0,1.133594015E1
5.336489750E0,-2.450341500E0,9.946047167E0,5.696419469E0,1.172080298E1
5.346531750E0,-2.416167741E0,9.800197143E0,5.224012392E0,1.136538763E1
5.356573750E0,-2.523198684E0,9.563174409E0,3.690350291E0,1.055649192E1
5.366615750E0,-2.682467776E0,9.390828313E0,1.951307080E0,9.959462289E0
5.376657750E0,-2.765416377E0,9.264827832E0,1.958501311E-1,9.670724883E0
5.386699750E0,-2.633568096E0,9.233566278E0,-1.383940635E0,9.701016380E0
5.396741750E0,-2.320406428E0,9.292474052E0,-3.285645200E0,1.012570118E1
5.406783750E0,-1.103454963E0,9.394894466E0,-4.471427790E0,1.046304551E1
5.416825750E0,5.207071254E-1,9.447054554E0,-5.472671084E0,1.093014659E1
5.426867750E0,1.698194855E0,9.359345149E0,-4.192495723E0,1.039510595E1
5.436909750E0,2.217510928E0,8.649818274E0,-1.354484117E0,9.031685231E0
5.446951750E0,2.094910311E0,6.884872482E0,4.420767514E0,8.445904553E0
5.456993750E0,5.739164954E-1,4.562373628E0,8.160162495E0,9.366583433E0
5.467035750E0,-3.395828962E-1,6.301146698E-1,5.903181692E0,5.946420363E0
5.477077750E0,2.404744036E0,-6.481935005E0,1.519889423E-1,6.915300132E0
5.487119750E0,1.113019955E1,-2.388348560E1,-9.379592303E0,2.796925058E1
5.497161750E0,2.171438377E1,-5.141255111E1,-8.869720945E0,5.651050189E1
5.507203750E0,1.768140243E1,-5.491030406E1,2.666246138E0,5.774844026E1
5.517245750E0,-1.124263742E0,-3.656819901E1,1.186307670E0,3.660470562E1
5.527287750E0,-7.143366777E0,-2.782840319E1,-1.072056584E0,2.875060032E1
5.537329750E0,-4.608538565E-1,-2.571892659E1,-5.174903966E0,2.623842988E1
5.547371750E0,7.381008146E0,-2.255270142E1,-1.159700500E0,2.375812551E1
5.557413750E0,9.300547888E0,-1.720769844E1,2.538843495E0,1.972437078E1
5.567455750E0,7.218495312E0,-1.042355769E1,3.526480318E0,1.316029228E1
5.577497750E0,6.243048763E0,-4.878452471E0,1.805738307E0,8.126232043E0
5.587539750E0,4.873163080E0,-6.353134292E-1,-2.727574074E-1,4.921964868E0
5.597581750E0,4.398812388E0,2.442379054E0,-1.604874755E0,5.281135186E0
5.607623750E0,3.685606153E0,4.362446800E0,-3.580953564E0,6.740761324E0
5.617665750E0,1.750812487E0,5.217133142E0,-6.040114127E0,8.171095475E0
5.627707750E0,4.733321071E-3,6.614384964E0,-6.859803715E0,9.529271633E0
5.637749750E0,-1.662152618E0,7.924703307E0,-5.437512946E0,9.753472247E0
5.647791750E0,-3.156631941E0,8.455605345E0,-3.351780133E0,9.627877078E0
5.657833750E0,-4.235762780E0,8.256512330E0,-1.429597449E0,9.389112368E0
5.667876750E0,-4.435982261E0,8.207335492E0,-1.046972468E-1,9.330019079E0
5.677918750E0,-5.503523333E0,8.880679797E0,-1.508277583E-1,1.044882729E1
5.687960375E0,-6.639308721E0,9.424029973E0,-8.926903937E-1,1.156242437E1
5.698002375E0,-6.931181846E0,8.704072250E0,2.639110818E-1,1.112977109E1
5.708044375E0,-7.582065825E0,7.828639401E0,-8.174805824E-1,1.092902519E1
5.718086375E0,-8.321715217E0,7.064426442E0,-2.895110251E0,1.129330459E1
5.728128375E0,-8.330971359E0,6.335839398E0,-3.708513497E0,1.110409911E1
5.738170375E0,-6.552230816E0,6.293242432E0,-3.644194125E0,9.788604589E0
5.748212375E0,-4.222461534E0,7.184973809E0,-3.394875866E0,8.998789485E0
5.758254375E0,-3.014417132E0,8.668110704E0,-2.336341553E0,9.470023531E0
5.768296375E0,-2.634482893E0,9.877916579E0,-9.552268767E-1,1.026772587E1
5.778338375E0,-2.392989086E0,1.054816186E1,5.281702191E-1,1.082908487E1
5.788380375E0,-2.056476270E0,1.079812331E1,1.635878447E0,1.111326505E1
5.798422375E0,-1.448086638E0,1.091829529E1,2.291860614E0,1.124983342E1
5.808464375E0,-1.422184642E0,1.063124962E1,2.388674718E0,1.098871442E1
5.818506375E0,-1.992317404E0,1.005231563E1,2.177422417E0,1.047661904E1
5.828548375E0,-2.440369951E0,9.732140815E0,1.717734203E0,1.017941949E1
5.838590375E0,-2.802906677E0,9.596702344E0,7.576786959E-1,1.002631830E1
5.848632375E0,-3.285357517E0,9.316407875E0,-3.300191903E-1,9.884226949E0
5.858674375E0,-3.823944551E0,8.845142759E0,-9.328378880E-1,9.681388789E0
5.868716375E0,-4.329643920E0,8.518783341E0,-1.970216975E0,9.756907349E0
5.878758375E0,-4.112547328E0,8.564134930E0,-2.856610429E0,9.920568319E0
5.888800375E0,-3.012729333E0,9.175001151E0,-3.087589481E0,1.013855971E1
5.898842375E0,-1.744572338E0,9.563064482E0,-3.591131812E0,1.036300934E1
5.908884375E0,-8.581291831E-1,8.361742331E0,-3.952870540E-1,8.414949338E0
5.918926375E0,4.559875113E-1,5.637944974E0,2.134826621E0,6.045811181E0
5.928968375E0,-7.408837384E-1,3.212134590E0,5.198276457E0,6.155387515E0
5.939010375E0,8.104202887E-1,-4.930494445E0,1.791227857E0,5.308017874E0
5.949052375E0,1.485161318E1,-3.677334038E1,-9.485504090E0,4.077773614E1
5.959094375E0,2.855186048E1,-7.023527156E1,-1.377503582E0,7.582941134E1
5.969136375E0,1.820269574E1,-5.536934323E1,4.086290406E0,5.842773375E1
5.979178375E0,1.968772713E0,-3.396913036E1,-3.309473773E0,3.418670063E1
5.989220375E0,-7.257730713E-1,-2.412708060E1,-2.208781035E0,2.423884235E1
5.999262375E0,4.110974135E0,-1.887509513E1,2.168645747E0,1.943893899E1
6.009304375E0,8.279808222E0,-1.553611514E1,6.651967212E-1,1.761728085E1
6.019346375E0,8.106706665E0,-1.156515872E1,-2.118076687E0,1.428138082E1
6.029388375E0,5.901954947E0,-6.197902411E0,-1.548707571E0,8.697445696E0
6.039430375E0,4.013851298E0,-1.159895212E0,-1.122432686E0,4.326224021E0
6.049473375E0,1.923726348E0,2.620912675E0,-8.112193108E-1,3.350818270E0
6.059515375E0,-2.405316478E-1,4.810159916E0,-1.155595754E0,4.952867396E0
6.069557375E0,-2.347294557E0,5.643403934E0,-2.552566910E0,6.623699686E0
6.079599375E0,-3.883429153E0,6.626003382E0,-3.771578057E0,8.556269271E0
6.089641375E0,-4.906056592E0,7.464898149E0,-3.673131995E0,9.658467493E0
6.099683375E0,-5.562453911E0,7.968262725E0,-2.193844323E0,9.962281731E0
6.109725375E0,-5.741030801E0,8.440900183E0,-7.143970209E-1,1.023321033E1
6.119767375E0,-5.624366570E0,8.523368728E0,7.229263544E-1,1.023737937E1
6.129809375E0,-3.935586316E0,8.138860504E0,2.509433169E0,9.382278230E0
6.139851375E0,-6.348699764E0,9.388229225E0,5.537604853E-1,1.134687126E1
6.149893375E0,-7.824170374E0,1.002434489E1,-2.943877784E0,1.305264529E1
6.159935375E0,-6.339469934E0,9.616098728E0,-2.264985057E0,1.173833000E1
6.169977375E0,-4.539703973E0,9.293089179E0,-1.238235623E-1,1.034339166E1
6.180019375E0,-3.014033554E0,9.358156995E0,-3.390063608E-1,9.837399348E0
6.190061375E0,-2.049618948E0,9.378283111E0,-1.841045550E0,9.774588516E0
6.200103375E0,-1.095278509E0,9.756662284E0,-3.548948829E0,1.043969021E1
6.210145375E0,-3.000849545E-1,1.033246509E1,-4.091473963E0,1.111710596E1
6.220187375E0,4.422269663E-1,1.081177305E1,-2.918263471E0,1.120741999E1
6.230229375E0,5.709694988E-1,1.096866437E1,-1.277649364E0,1.105757624E1
6.240271375E0,-8.490010947E-1,1.051120512E1,-4.890611172E-1,1.055677113E1
6.250313375E0,-2.798078046E0,9.654999669E0,1.646131539E-1,1.005362407E1
6.260355375E0,-3.382842296E0,8.578866990E0,1.151133744E0,9.293314249E0
6.270397375E0,-3.940270521E0,7.885462058E0,1.960213559E0,9.030430823E0
6.280439375E0,-4.427719561E0,7.530120916E0,2.171085790E0,9.001168536E0
6.290481375E0,-4.280779031E0,7.394755535E0,1.658330001E0,8.703880567E0
6.300523375E0,-4.136069507E0,7.528561463E0,9.862276447E-1,8.646326020E0
6.310565375E0,-4.130012961E0,7.775499321E0,-4.495035338E-1,8.815750120E0
6.320607375E0,-4.223830367E0,7.654948445E0,-2.081321089E0,8.987261882E0
6.330649375E0,-4.266742790E0,6.931093553E0,-8.062327322E-1,8.178946331E0
6.340691375E0,-3.271060782E0,6.606613430E0,4.007039145E-1,7.382935953E0
6.350733375E0,1.379103965E0,6.574948418E0,1.026943050E0,6.796064043E0
6.360775375E0,3.714556010E0,5.165040883E0,3.987963628E0,7.508623547E0
6.370817375E0,2.399833105E0,2.629433237E0,-7.302890222E-1,3.634066612E0
6.380859375E0,5.404848061E0,-9.147792302E0,-8.394870901E0,1.354135680E1
6.390901375E0,1.332591791E1,-3.611014451E1,-1.630159285E0,3.852505735E1
6.400943375E0,2.163750692E1,-6.842817319E1,2.246453476E-1,7.176800860E1
6.410986375E0,1.257307954E1,-5.176794020E1,2.047034332E0,5.331221540E1
6.421028375E0,-1.497203980E0,-2.798979804E1,-4.074960841E0,2.832447210E1
6.431070375E0,6.245628847E-1,-2.091418763E1,1.629360409E0,2.098685632E1
6.441112375E0,5.511111265E0,-1.737238059E1,3.086225910E0,1.848504112E1
6.451154375E0,8.998454415E0,-1.522377676E1,3.778717069E-1,1.768836758E1
6.461196375E0,8.804516305E0,-1.209599703E1,5.966311741E-1,1.497292958E1
6.471238375E0,6.277878873E0,-7.789928495E0,1.766193588E0,1.015943841E1
6.481280375E0,4.019656121E0,-3.651366320E0,2.056905456E0,5.806976097E0
6.491322375E0,2.091939341E0,-4.059973258E-1,1.661582222E0,2.702202715E0
6.501364375E0,4.597803077E-1,2.208126732E0,1.175305549E0,2.543337321E0
6.511406375E0,-5.941306123E-1,4.544153119E0,-9.645292121E-1,4.683229159E0
6.521448375E0,-1.235384228E0,6.992654209E0,-4.411581538E0,8.359751117E0
6.531490375E0,-1.594183121E0,9.013523274E0,-5.707226293E0,1.078691122E1
6.541532375E0,-2.298767637E0,1.012816104E1,-4.099010439E0,1.116538693E1
6.551574375E0,-3.568884034E0,1.043205721E1,-1.890850378E0,1.118660207E1
6.561616375E0,-4.282661250E0,1.017814771E1,-5.205337554E-1,1.105471997E1
6.571658375E0,-4.562913326E0,9.802067667E0,-2.497223014E-1,1.081494659E1
6.581700375E0,-4.872916912E0,9.467695810E0,-1.462953476E0,1.074815408E1
6.591742375E0,-5.486781585E0,9.065087530E0,-3.763700103E0,1.124482203E1
6.601784375E0,-6.149515532E0,8.505254638E0,-5.652399291E0,1.192080180E1
6.611826375E0,-6.310132114E0,8.023049966E0,-5.735947232E0,1.170846654E1
6.621868375E0,-5.910339854E0,7.745874987E0,-4.830247441E0,1.087483273E1
6.631910375E0,-4.788171462E0,7.735610785E0,-3.396338840E0,9.710889644E0
6.641952375E0,-3.235135197E0,8.048165511E0,-2.172351712E0,8.941933784E0
6.651994375E0,-3.221662920E0,8.287972689E0,-1.191163198E0,8.971536827E0
6.662036375E0,-3.662150047E0,8.428942627E0,-5.781422782E-1,9.208293287E0
6.672078375E0,-4.042090133E0,8.693365998E0,2.556355906E-1,9.590539848E0
6.682120208E0,-4.118980435E0,8.870603875E0,1.650946137E0,9.918630756E0
6.692162208E0,-3.852239520E0,9.335002606E0,3.285592575E0,1.061965826E1
6.702204208E0,-3.438680575E0,9.601985303E0,4.202557611E0,1.103105327E1
6.712246208E0,-3.267251321E0,9.842725697E0,4.020546652E0,1.112290321E1
6.722288208E0,-3.419323075E0,1.011019371E1,3.040687795E0,1.109745779E1
6.732330208E0,-3.635686719E0,1.026748147E1,1.658904197E0,1.101777459E1
6.742372208E0,-3.659839227E0,1.031063627E1,1.558996332E-1,1.094202669E1
6.752414208E0,-3.384395317E0,1.034564939E1,-8.899567473E-1,1.092147499E1
6.762456208E0,-2.584737998E0,1.040156515E1,-7.497697520E-1,1.074409525E1
6.772498208E0,-1.163423714E0,1.037528776E1,-2.165626245E0,1.066255541E1
6.782540208E0,1.057702839E-2,1.005260566E1,-4.539709235E0,1.103013836E1
6.792582208E0,9.588974664E-1,9.480572548E0,-4.385840925E0,1.048982082E1
6.802625208E0,1.462456170E0,7.804676927E0,-7.526090869E-1,7.976100577E0
6.812667208E0,5.109288266E-1,5.697529271E0,4.068219001E0,7.019493849E0
6.822709208E0,-1.147007364E-1,1.095638405E0,2.737290977E0,2.950651058E0
6.832751208E0,4.653974062E0,-1.471673311E1,-9.009497466E0,1.787212222E1
6.842793208E0,1.317839383E1,-4.197108006E1,-1.056733839E1,4.524279242E1
6.852835208E0,2.090412340E1,-6.254957904E1,-1.774226639E0,6.597408653E1
6.862877208E0,1.303840681E1,-5.250517586E1,3.020573373E0,5.418410660E1
6.872919208E0,-2.551173518E0,-3.279438965E1,-4.092853321E0,3.314712548E1
6.882961208E0,-2.537867010E0,-2.451803714E1,-9.402837324E-1,2.466696267E1
6.893003208E0,2.547566956E0,-2.101873585E1,1.963637688E0,2.126342463E1
6.903045208E0,5.520259234E0,-1.958803093E1,-9.198184045E-1,2.037180119E1
6.913087208E0,6.151231690E0,-1.433889539E1,-1.734583540E0,1.569873729E1
6.923129208E0,5.690902036E0,-8.157418982E0,3.228834311E-2,9.946401006E0
6.933171208E0,4.455927406E0,-3.237732530E0,2.870831040E-1,5.515488890E0
6.943213208E0,3.521582398E0,3.326457596E-1,-1.553385344E0,3.863314874E0
6.953255208E0,2.513323907E0,2.577950842E0,-3.843848473E0,5.266668652E0
6.963297208E0,1.216781604E0,3.955804526E0,-5.745195773E0,7.080693567E0
6.973339208E0,-4.678936118E-1,5.295243757E0,-6.950343171E0,8.750188631E0
6.983381208E0,-1.745734180E0,7.123159969E0,-6.002605408E0,9.477249995E0
6.993423208E0,-2.805345843E0,8.082637187E0,-3.895291107E0,9.400653275E0
7.003465208E0,-3.587445435E0,8.715277269E0,-1.870678654E0,9.608603502E0
7.013507208E0,-4.078473556E0,9.528588713E0,-1.311004221E-1,1.036557460E1
7.023549208E0,-4.707890945E0,1.011179000E1,1.253241917E0,1.122422155E1
7.033591208E0,-5.458153617E0,1.023260634E1,2.135131845E0,1.179222038E1
7.043633208E0,-6.426176541E0,9.989908301E0,2.167471041E0,1.207443347E1
7.053675208E0,-7.315840927E0,9.755507458E0,1.395629219E0,1.227351764E1
7.063717208E0,-7.460363048E0,9.540173217E0,-3.859396219E-2,1.211087987E1
7.073759208E0,-6.536259146E0,9.257052789E0,-7.724130946E-1,1.135835956E1
7.083801208E0,-4.549004847E0,9.131394371E0,-7.098414552E-1,1.022642084E1
7.093843208E0,-2.682620388E0,9.431093994E0,-4.883483781E-1,9.817355561E0
7.103885208E0,-1.682047184E0,9.838171885E0,-9.849973905E-1,1.002941317E1
7.113927208E0,-8.505152312E-1,1.006970525E1,-1.613850231E0,1.023361386E1
7.123969208E0,-1.037237585E-2,1.042129950E1,-1.529622259E0,1.053296421E1
7.134011208E0,6.132746887E-1,1.085721293E1,-7.425075102E-1,1.089983926E1
7.144053208E0,6.911759734E-1,1.131019088E1,5.165383530E-1,1.134305752E1
7.154095208E0,7.774633348E-2,1.135142779E1,1.493321575E0,1.144949635E1
7.164138208E0,-4.617864874E-1,1.039930344E1,1.510321770E0,1.051854699E1
7.174180208E0,-1.074174738E0,9.578363137E0,1.631176701E0,9.775460561E0
7.184222208E0,-1.746526186E0,9.045138584E0,1.576730937E0,9.346173879E0
7.194264208E0,-2.506800461E0,8.701961405E0,8.204672670E-1,9.092928427E0
7.204306208E0,-3.324631803E0,8.414031057E0,-5.235830784E-2,9.047200487E0
7.214348208E0,-3.875502959E0,8.145975981E0,-6.212421048E-1,9.042255782E0
7.224390208E0,-3.990921442E0,8.097300249E0,-2.103087934E0,9.269126396E0
7.234432208E0,-3.617743075E0,8.193227330E0,-4.663791829E0,1.009792025E1
7.244474208E0,-3.191285757E0,7.577614925E0,-5.697987692E0,1.000358018E1
7.254516208E0,-1.669548907E0,6.766543549E0,-4.124866827E0,8.098643805E0
7.264558208E0,2.580449942E0,4.315934538E0,-4.052865967E-1,5.044826069E0
7.274600208E0,2.339978813E0,3.094214961E0,5.557245212E0,6.777362423E0
7.284642208E0,5.185607879E0,-1.786186388E0,-2.673537616E0,6.101540319E0
7.294684208E0,1.371321175E1,-2.412627369E1,-8.642190582E0,2.906573096E1
7.304726208E0,2.070731080E1,-7.773736619E1,8.104191778E0,8.085523327E1
7.314768208E0,2.024996030E1,-8.038975677E1,1.158302781E1,8.370627467E1
7.324810208E0,-2.543535885E-1,-3.315689363E1,2.700133384E0,3.326762708E1
7.334852208E0,-1.798231652E0,-1.872564732E1,-7.378975654E-1,1.882625819E1
7.344894208E0,3.169650182E0,-1.233285604E1,2.466032796E0,1.297024819E1
7.354936208E0,6.214830101E0,-1.023162284E1,-4.492521036E-1,1.197965135E1
7.364978208E0,7.029285260E0,-8.760749311E0,-1.365112016E0,1.131481819E1
7.375020208E0,5.474861451E0,-5.696660959E0,-9.655553985E-1,7.959795928E0
7.385062208E0,3.291577200E0,-3.296804026E0,-9.832128203E-1,4.761313338E0
7.395104208E0,1.343104851E0,-1.224471277E0,-1.650466665E0,2.455056162E0
7.405146208E0,6.204234946E-1,5.823353165E-1,-3.406683149E0,3.511343021E0
7.415188208E0,4.815307805E-1,2.618125307E0,-5.449189251E0,6.064661203E0
7.425230208E0,6.352868244E-1,5.524189147E0,-6.846824650E0,8.820389043E0
7.435272208E0,4.569452852E-1,8.164008794E0,-7.450368403E0,1.106199927E1
7.445314208E0,-3.575557753E-1,9.667841324E0,-7.435873740E0,1.220193510E1
7.455356208E0,-2.741697731E0,1.012863817E1,-7.731988435E0,1.303418056E1
7.465398208E0,-5.424339754E0,1.016112647E1,-5.840203087E0,1.291433022E1
7.475440208E0,-5.751800787E0,9.323984113E0,-3.227061946E0,1.142076271E1
7.485482208E0,-5.691676793E0,8.402069993E0,-1.300413744E0,1.023137531E1
7.495525208E0,-5.581926309E0,8.010425828E0,-7.325065056E-1,9.790882955E0
7.505567208E0,-4.878134968E0,7.820402429E0,-1.401023276E0,9.322969544E0
7.515609208E0,-4.523115130E0,8.097300834E0,-2.240607430E0,9.541759425E0
7.525651208E0,-4.750214846E0,8.550602719E0,-2.031086490E0,9.990128141E0
7.535693208E0,-4.556218264E0,8.941330041E0,-2.806289291E-1,1.003918624E1
7.545735208E0,-4.012558478E0,9.558342855E0,2.025080230E0,1.056236212E1
7.555777208E0,-3.236347325E0,1.021303922E1,4.000021756E0,1.143592096E1
7.565819208E0,-2.846027261E0,1.035482367E1,4.981439481E0,1.183794677E1
7.575861208E0,-2.296285202E0,1.015227729E1,4.483726823E0,1.133337841E1
7.585903208E0,-1.957600584E0,9.730618200E0,3.330343655E0,1.046939919E1
7.595945208E0,-1.486131108E0,9.696417251E0,2.694909189E0,1.017308354E1
7.605987208E0,-9.010211411E-1,1.007554077E1,2.123569561E0,1.033624248E1
7.616029208E0,-9.157752742E-1,1.060815663E1,8.414774823E-1,1.068081063E1
7.626071208E0,-1.334595252E0,1.074732504E1,-6.007803583E-1,1.084652373E1
7.636113208E0,-1.524248522E0,1.067751163E1,-9.536936637E-1,1.082784003E1
7.646155208E0,-1.606818223E0,1.052521855E1,-9.576089593E-1,1.069014057E1
7.656197208E0,-1.410266116E0,1.023212219E1,-1.393620701E0,1.042244471E1
7.666239208E0,-1.145832074E0,9.771679688E0,-1.657610793E0,9.977290644E0
7.676281208E0,-7.723338649E-1,9.096994616E0,-1.782879202E0,9.302175493E0
7.686323833E0,-2.321598968E-1,8.269636990E0,-3.979897978E0,9.180434744E0
7.696365833E0,6.517087296E-1,7.588335795E0,-6.668032583E0,1.012275767E1
7.706407833E0,1.556200193E0,6.333327434E0,-7.125335133E-1,6.560525851E0
7.716449833E0,1.052432159E0,4.173550744E0,1.219287954E1,1.293029198E1
7.726491833E0,-1.656244591E0,1.651981094E0,8.716972961E0,9.025397791E0
7.736533833E0,1.628536098E0,-9.292281679E0,-7.959703571E0,1.234323740E1
7.746575833E0,1.078425372E1,-3.123692061E1,-1.419090354E1,3.596424726E1
7.756617833E0,1.777708276E1,-5.263896483E1,-1.529818579E0,5.558080276E1
7.766659833E0,1.375734770E1,-5.459489589E1,9.353710480E-1,5.630934374E1
7.776701833E0,-2.079554061E0,-3.471831773E1,-1.434126556E0,3.481009696E1
7.786743833E0,-5.169166678E0,-2.612143255E1,-7.418643165E-1,2.663831611E1
7.796785833E0,2.249900994E0,-2.529039819E1,1.643177965E0,2.544339460E1
7.806827833E0,6.203150872E0,-2.318783066E1,3.682731954E0,2.428409121E1
7.816869833E0,6.189818051E0,-1.658754158E1,4.962219683E0,1.838706086E1
7.826912833E0,6.146306580E0,-9.985001317E0,4.544852446E0,1.257509521E1
7.836954833E0,4.625869712E0,-5.148656985E0,2.923399665E0,7.513561402E0
7.846996833E0,2.775032415E0,-1.936977308E0,1.637002866E0,3.759317010E0
7.857038833E0,1.928928031E0,4.139735126E-1,-3.187551141E-2,1.973107566E0
7.867080833E0,1.213017751E0,2.276905775E0,-2.359928636E0,3.496423192E0
7.877122833E0,6.206600145E-1,3.518990620E0,-4.860941230E0,6.033014460E0
7.887164833E0,-2.189539602E-1,5.146244423E0,-6.076397855E0,7.965825970E0
7.897206833E0,-9.412955931E-1,6.537744924E0,-5.373994058E0,8.515160493E0
7.907248833E0,-1.592140981E0,7.508898447E0,-3.095824115E0,8.276629491E0
7.917290833E0,-2.190720448E0,8.483756180E0,-7.262863107E-1,8.792091151E0
7.927332833E0,-1.429776082E0,9.244040396E0,9.905376273E-1,9.406258941E0
7.937374833E0,-1.981807326E0,1.067152642E1,-1.776672383E0,1.099843630E1
7.947416833E0,-5.253574160E0,1.121259033E1,-5.472584546E0,1.353777696E1
7.957458833E0,-7.033430936E0,9.713564211E0,-3.667083051E0,1.254073277E1
7.967500833E0,-7.555453978E0,8.592109179E0,-3.035150481E0,1.183728700E1
7.977542833E0,-7.515470717E0,7.795282205E0,-5.238622829E0,1.202879437E1
7.987584833E0,-6.190037906E0,7.605407326E0,-4.943314465E0,1.098158221E1
7.997626833E0,-3.112012424E0,8.296347656E0,-2.875267140E0,9.315640981E0
8.007668833E0,-1.372039213E0,9.027969990E0,-1.561256865E0,9.264138208E0
8.017710833E0,-7.578096735E-1,9.974248288E0,-4.762381276E-2,1.000310814E1
8.027752833E0,-1.282122192E0,1.052042618E1,1.376695935E0,1.068730536E1
8.037794833E0,-2.305579059E0,1.050230449E1,2.345974256E0,1.100534822E1
8.047836833E0,-2.189662394E0,1.016606503E1,2.879462517E0,1.079049600E1
8.057878833E0,-1.678008805E0,9.881692711E0,3.487097567E0,1.061241791E1
8.067920833E0,-1.417591069E0,9.758265005E0,3.773622243E0,1.055810235E1
8.077962833E0,-1.822128930E0,9.490507552E0,2.853130167E0,1.007622147E1
8.088004833E0,-2.778263002E0,9.378554422E0,1.358781236E0,9.875338719E0
8.098046833E0,-3.838894127E0,9.105632708E0,1.072823739E-1,9.882366348E0
8.108088833E0,-4.357454447E0,8.711871266E0,-8.429182363E-1,9.777250194E0
8.118130833E0,-4.042781859E0,8.309454190E0,-1.323351202E0,9.335007900E0
8.128172833E0,-3.386797353E0,8.126250983E0,-1.587540100E0,8.945760724E0
8.138214833E0,-2.957370234E0,8.202741920E0,-1.810708441E0,8.905598170E0
8.148256833E0,-2.794352493E0,8.542362238E0,-1.776302254E0,9.161637854E0
8.158298833E0,-2.708053145E0,9.059955429E0,-2.302670946E0,9.732350060E0
8.168340833E0,-2.690231416E0,9.071466842E0,-2.902093581E0,9.897019900E0
8.178382833E0,-2.629684083E0,8.141578875E0,-1.392793905E0,8.668357388E0
8.188424833E0,-1.540039366E0,6.478120281E0,-2.271453831E0,7.035429350E0
8.198467833E0,2.358484666E0,3.588878880E0,-6.814950893E0,8.055188217E0
8.208509833E0,4.213112713E0,7.996079099E-1,-2.866714418E0,5.158269389E0
8.218551833E0,4.369696763E0,-7.736970263E0,-8.451515803E-1,8.925762703E0
8.228593833E0,9.418096218E0,-3.327302869E1,-1.041034182E1,3.611329660E1
8.238635833E0,1.731696185E1,-7.373629895E1,-9.224641088E0,7.630211631E1
8.248677833E0,1.704177434E1,-6.352002973E1,5.616559367E0,6.600577239E1
8.258719833E0,2.071234350E0,-3.004774196E1,4.614117393E0,3.047042645E1
8.268761833E0,2.089394340E-1,-1.937194240E1,6.156568444E-1,1.938284916E1
8.278803833E0,4.110535593E0,-1.649896211E1,9.279977091E-1,1.702860632E1
8.288845833E0,6.480161544E0,-1.529219971E1,2.532844251E0,1.680057039E1
8.298887833E0,6.370084201E0,-1.153332063E1,4.333458059E0,1.386990686E1
8.308929833E0,4.478396502E0,-6.859050009E0,4.081139009E0,9.151955958E0
8.318971833E0,1.906965012E0,-4.171986029E0,3.009401683E0,5.486208297E0
8.329013833E0,1.368558365E-1,-2.910418262E0,1.565976738E0,3.307800950E0
8.339055833E0,-1.128518761E0,-2.371182772E0,2.403252594E-1,2.637009397E0
8.349097833E0,-7.504223013E-1,-4.501888275E-1,-9.500462437E-1,1.291662292E0
8.359139833E0,7.586800316E-1,2.706913522E0,-3.124828058E0,4.203275699E0
8.369181833E0,1.704900442E0,5.496686769E0,-4.926668612E0,7.575771549E0
8.379223833E0,1.950579686E0,7.662522343E0,-5.502878385E0,9.633310973E0
8.389265833E0,1.515541287E0,9.306994443E0,-5.358522325E0,1.084577210E1
8.399307833E0,5.719579706E-1,1.008490684E1,-5.348424184E0,1.142970355E1
8.409349833E0,-2.698054406E-1,1.022237722E1,-5.247654439E0,1.149380999E1
8.419391833E0,-8.810210323E-1,9.961369210E0,-4.898192672E0,1.113541046E1
8.429433833E0,-2.387104448E0,9.386412495E0,-5.383483504E0,1.108083489E1
8.439475833E0,-3.966380385E0,8.616659884E0,-6.255393405E0,1.136261183E1
8.449517833E0,-3.260084097E0,8.351198632E0,-6.528158998E0,1.108997416E1
8.459559833E0,-1.933652582E0,8.588020806E0,-6.311703261E0,1.083193019E1
8.469601833E0,-2.007395326E0,8.955765647E0,-4.873857729E0,1.039181714E1
8.479643833E0,-3.825512774E0,9.914351749E0,-2.963467126E0,1.103227338E1
8.489685833E0,-4.639428236E0,1.042739815E1,-9.926046181E-1,1.145601110E1
8.499727833E0,-4.986341786E0,1.031130870E1,2.446039996E0,1.171195129E1
8.509769833E0,-5.349381373E0,9.941036103E0,6.232299242E0,1.289502360E1
8.519811833E0,-4.465290845E0,9.449395194E0,8.871112583E0,1.370862978E1
8.529853833E0,-3.630023105E0,9.262125834E0,8.465754358E0,1.306265821E1
8.539896833E0,-2.981422171E0,9.437099084E0,6.431599249E0,1.180310070E1
8.549938833E0,-3.080992067E0,9.399275785E0,4.506187148E0,1.086943513E1
8.559980833E0,-3.662306460E0,9.198665417E0,2.663958707E0,1.025302931E1
8.570022833E0,-4.178985439E0,8.981776401E0,6.092588210E-1,9.925090576E0
8.580064833E0,-4.860426967E0,8.734966598E0,-1.744554212E0,1.014725880E1
8.590106833E0,-4.981191559E0,8.537367547E0,-3.350824113E0,1.043680680E1
8.600148833E0,-4.197201270E0,8.531943669E0,-3.814324712E0,1.024498093E1
8.610190833E0,-2.550629435E0,8.828610342E0,-3.948361605E0,1.000198133E1
8.620232833E0,-9.128683309E-1,9.293612505E0,-3.327680833E0,9.913527209E0
8.630274833E0,1.999728750E-1,9.970889647E0,-1.079068419E0,1.003110254E1
8.640316833E0,1.062760389E0,1.021106052E1,-3.004686049E-1,1.027061332E1
8.650358833E0,7.059629971E-1,8.752890068E0,-1.052589011E0,8.844173897E0
8.660400833E0,6.082159701E-1,7.483709811E0,-2.535495379E0,7.924933818E0
8.670442833E0,1.541811950E0,5.381364473E0,-1.564996744E0,5.812528064E0
8.680484083E0,8.719063926E-1,3.955951291E0,6.310435585E0,7.498757807E0
8.690526083E0,-1.032501340E-2,1.503838962E0,3.629089597E0,3.928349467E0
8.700568083E0,6.034865667E0,-1.161186628E1,-1.047203462E1,1.676062502E1
8.710610083E0,1.428795913E1,-3.507888278E1,-6.987081227E0,3.851614073E1
8.720652083E0,2.039997881E1,-5.961367335E1,-1.773794676E0,6.303249585E1
8.730694083E0,1.364216340E1,-5.411323501E1,-5.629998608E0,5.608963995E1
8.740736083E0,-4.569005540E-1,-3.351493034E1,-8.167315979E0,3.449875888E1
8.750778083E0,-1.794488557E0,-2.436144636E1,-1.709220657E0,2.448717406E1
8.760820083E0,5.048274910E0,-2.073957808E1,1.259532498E0,2.138227304E1
8.770862083E0,6.850099676E0,-1.858743785E1,2.241337308E0,1.993590490E1
8.780904083E0,6.484895450E0,-1.559067083E1,2.424877899E0,1.705880766E1
8.790946083E0,5.816945786E0,-1.109118342E1,1.848099046E0,1.265964763E1
8.800988083E0,4.469281277E0,-6.639278900E0,1.831820397E0,8.210363294E0
8.811030083E0,2.200164870E0,-3.759884795E0,1.312374809E0,4.549701833E0
8.821072083E0,-5.274685532E-2,-1.869303973E0,5.909313448E-1,1.961193369E0
8.831114083E0,-1.336397802E0,2.582387710E-1,-8.070315349E-1,1.582386251E0
8.841156083E0,-2.271594749E0,2.486443087E0,-3.220403722E0,4.659779186E0
8.851198083E0,-2.336742964E0,5.022739534E0,-6.317589068E0,8.402393215E0
8.861240083E0,-1.934329982E0,7.126306356E0,-6.811699256E0,1.004614959E1
8.871282083E0,-1.307919523E0,8.208462251E0,-3.977292459E0,9.214573311E0
8.881325083E0,-1.307635056E0,8.511714642E0,-9.869268986E-1,8.667942102E0
8.891367083E0,-2.822691608E0,9.856971853E0,-1.294437305E0,1.033455611E1
8.901409083E0,-4.014014143E0,1.076397908E1,-6.460027242E-1,1.150621027E1
8.911451083E0,-4.074825186E0,1.038790254E1,5.942192707E-1,1.117433739E1
8.921493083E0,-4.537592836E0,9.857677027E0,-4.083824050E-1,1.085957280E1
8.931535083E0,-5.187781874E0,9.005244201E0,-4.161711302E0,1.119496962E1
8.941577083E0,-5.549798198E0,7.590866470E0,-7.289056587E0,1.189755688E1
8.951619083E0,-5.183278933E0,6.460540043E0,-6.786311231E0,1.070789327E1
8.961661083E0,-4.226005531E0,6.047076992E0,-4.399017041E0,8.589389607E0
8.971703083E0,-3.547324765E0,6.317619474E0,-2.288441747E0,7.598209949E0
8.981745083E0,-3.110692999E0,7.414773477E0,-3.391426009E-1,8.047999401E0
8.991787083E0,-3.095415102E0,9.247753962E0,9.230245060E-1,9.795637919E0
9.001829083E0,-3.410858645E0,1.002556111E1,1.556811227E0,1.070371401E1
9.011871083E0,-3.462333731E0,9.938561561E0,2.320315504E0,1.077713435E1
9.021913083E0,-3.371514778E0,1.013138636E1,2.647699939E0,1.100101888E1
9.031955083E0,-3.457591932E0,1.022418635E1,2.531016997E0,1.108580063E1
9.041997083E0,-3.704378639E0,1.001959461E1,2.191876734E0,1.090499981E1
9.052039083E0,-3.651415144E0,9.515872189E0,9.518916249E-1,1.023673550E1
9.062081083E0,-3.855091207E0,8.624198114E0,-1.256055012E0,9.529753172E0
9.072123083E0,-4.039306274E0,7.767539506E0,-2.707028128E0,9.163987475E0
9.082165083E0,-4.006073624E0,7.099238425E0,-3.381358273E0,8.825043675E0
9.092207083E0,-3.935705599E0,6.795874937E0,-3.261472811E0,8.503581576E0
9.102249083E0,-4.036681751E0,6.763735716E0,-2.823708147E0,8.367571218E0
9.112291083E0,-4.595504829E0,7.038019831E0,-2.872348795E0,8.882723421E0
9.122333083E0,-5.338259969E0,7.671566232E0,-3.608227901E0,1.001844581E1
9.132375083E0,-6.230514672E0,8.202126208E0,-3.014822052E0,1.073235013E1
9.142417083E0,-5.504290488E0,8.795902771E0,-1.120292167E-1,1.037678514E1
9.152459083E0,-2.882504531E0,9.659301465E0,1.858557522E0,1.025013040E1
9.162501083E0,1.074804630E0,1.052693881E1,4.425816730E-1,1.059091706E1
9.172543083E0,5.809154372E0,1.017900141E1,-2.849334154E0,1.206138671E1
9.182585083E0,6.784519644E0,7.231795973E0,-2.666971192E0,1.026846216E1
9.192627083E0,4.260752318E0,3.257132422E0,2.461149494E0,5.900862544E0
9.202669083E0,6.473009230E0,-8.223928721E0,-1.327370286E0,1.054963336E1
9.212711083E0,1.595779294E1,-4.991507918E1,-6.837662648E0,5.284808337E1
9.222754083E0,3.037369149E1,-9.191008138E1,4.642795940E-1,9.679999870E1
9.232796083E0,1.527226889E1,-5.614035709E1,-5.326338665E0,5.842389729E1
9.242838083E0,-1.944595938E0,-2.824643234E1,-7.838281460E0,2.937824109E1
9.252880083E0,5.843663469E0,-1.873875911E1,6.058536365E0,2.054252562E1
9.262922083E0,1.085846541E1,-1.235786692E1,4.905168400E0,1.716635730E1
9.272964083E0,1.162716494E1,-1.020658389E1,1.608675445E0,1.555484349E1
9.283006083E0,8.660437403E0,-8.071061454E0,2.188851385E0,1.203894843E1
9.293048083E0,4.408764642E0,-6.263242707E0,2.792400985E0,8.152479263E0
9.303090083E0,8.315211359E-1,-4.256892863E0,1.957457181E0,4.758592530E0
9.313132083E0,-1.521591693E0,-2.407889838E0,7.511789310E-1,2.945750250E0
9.323174083E0,-3.187880047E0,-9.917117482E-1,-1.131204679E0,3.525009987E0
9.333216083E0,-4.338986894E0,1.268774461E0,-4.586067715E0,6.439612798E0
9.343258083E0,-5.088946972E0,4.090122671E0,-7.362390026E0,9.840288190E0
9.353300083E0,-4.160371120E0,6.658132662E0,-7.302060794E0,1.072191728E1
9.363342083E0,-3.551426587E0,8.152420197E0,-5.179717394E0,1.029096974E1
9.373384083E0,-3.700619171E0,8.371652192E0,-2.709537753E0,9.545718282E0
9.383426083E0,-3.787267598E0,8.083921235E0,-1.130039402E0,8.998342483E0
9.393468083E0,-4.115575309E0,8.042648079E0,-1.126666070E0,9.104478276E0
9.403510083E0,-4.566954629E0,8.589408351E0,-2.310319104E0,9.998629144E0
9.413552083E0,-5.282503259E0,9.062506569E0,-4.836351349E0,1.155093764E1
9.423594083E0,-5.597153043E0,8.803029943E0,-7.362091818E0,1.276800119E1
9.433636083E0,-5.023349984E0,8.333095652E0,-7.969743240E0,1.257741371E1
9.443678083E0,-4.409359303E0,8.435789132E0,-6.308492555E0,1.141937240E1
9.453720083E0,-3.664793573E0,9.185664718E0,-2.427542914E0,1.018332524E1
9.463762083E0,-2.460244637E0,1.042940959E1,1.519366243E0,1.082283982E1
9.473804083E0,-1.643163200E0,1.101959596E1,4.207613114E0,1.190947054E1
9.483846083E0,-1.963449115E0,1.075441771E1,5.588607922E0,1.227783252E1
9.493888083E0,-2.163413658E0,1.011463994E1,5.066240480E0,1.151751242E1
9.503930083E0,-1.595131247E0,1.013694823E1,3.802374172E0,1.094350093E1
9.513972083E0,-6.592624551E-1,1.069461590E1,3.315083592E0,1.121602494E1
9.524014083E0,3.844310403E-2,1.088601749E1,3.005433762E0,1.129333816E1
9.534056083E0,-3.337029362E-1,1.028080143E1,2.266751500E0,1.053301467E1
9.544098083E0,-1.370323932E0,9.833388863E0,1.070981866E0,9.986006527E0
9.554141083E0,-2.265546097E0,9.450322562E0,-4.202686250E-1,9.727174377E0
9.564183083E0,-2.818517573E0,8.971758367E0,-1.319673303E0,9.496211199E0
9.574225083E0,-2.829004262E0,8.666385190E0,-1.463183856E0,9.233114555E0
9.584267083E0,-2.390916540E0,8.615945354E0,-1.054079905E0,9.003448267E0
9.594309083E0,-1.959544052E0,8.762061426E0,-3.477117320E-1,8.985234375E0
9.604351083E0,-1.815876210E0,9.050999249E0,2.208353019E-1,9.234000327E0
9.614393083E0,-1.842877044E0,9.255454161E0,-4.998749213E-1,9.450370493E0
9.624435083E0,-1.816825213E0,8.681096200E0,-2.098932757E0,9.114154037E0
9.634477083E0,-1.853843935E0,7.551750351E0,-1.200861390E0,7.868147100E0
9.644519083E0,-1.623442588E0,6.074226784E0,-1.268712480E0,6.414158418E0
9.654561083E0,7.256629975E-1,3.207947398E0,-5.391148034E0,6.315218953E0
9.664603083E0,3.346748896E0,6.074438453E-1,-2.848434852E0,4.436586222E0
9.674645083E0,3.767056990E0,-4.770053864E0,3.140387792E0,6.841503323E0
9.684686958E0,8.365619620E0,-2.357327677E1,-8.133692150E0,2.630284999E1
9.694728958E0,1.526136734E1,-5.445808976E1,-1.121942689E1,5.765820334E1
9.704770958E0,1.406775065E1,-5.677441044E1,5.110363569E0,5.871414740E1
9.714812958E0,6.757127777E0,-3.591928671E1,6.643296522E0,3.714818060E1
9.724854958E0,7.715295804E-1,-2.591232208E1,-1.983037580E0,2.599954099E1
9.734896958E0,6.602044415E0,-2.286091283E1,-4.959313617E0,2.430644189E1
9.744938958E0,1.006786221E1,-2.167204993E1,2.080032217E0,2.398679077E1
9.754980958E0,9.005768697E0,-1.964053308E1,3.558141822E0,2.189782598E1
9.765022958E0,5.855454379E0,-1.543679667E1,3.673978672E0,1.691387468E1
9.775064958E0,2.984030322E0,-1.074733206E1,3.315002900E0,1.163610019E1
9.785106958E0,9.259972304E-2,-6.608992662E0,1.815655185E0,6.854484843E0
9.795148958E0,-2.361110651E0,-3.764730967E0,6.279535389E-1,4.488025001E0
9.805190958E0,-3.613060625E0,-1.636840898E0,-5.437951487E-1,4.003644386E0
9.815232958E0,-2.486169730E0,1.697972953E0,-4.413966617E0,5.342962977E0
9.825274958E0,2.958427995E-1,5.536738442E0,-7.857567331E0,9.616878906E0
9.835316958E0,2.106365006E0,8.426613681E0,-7.139875989E0,1.124377253E1
9.845358958E0,2.016853783E-1,1.195597141E1,-9.493225923E0,1.526785079E1
9.855400958E0,-3.145005338E0,1.170508259E1,-3.690053837E0,1.266951121E1
9.865442958E0,-3.716386188E0,1.036025106E1,3.192571560E0,1.146031594E1
9.875485958E0,-4.123076994E0,9.722529747E0,8.079901859E-2,1.056096004E1
9.885527958E0,-4.314666862E0,9.834025040E0,-4.106695434E0,1.149736257E1
9.895569958E0,-4.486111903E0,9.552497393E0,-7.348922135E0,1.286009576E1
9.905611958E0,-4.940276252E0,7.931884857E0,-7.971207383E0,1.228255975E1
9.915653958E0,-5.339072732E0,6.467404089E0,-6.986397688E0,1.091525382E1
9.925695958E0,-5.405153870E0,5.934933243E0,-4.879059412E0,9.393845949E0
9.935737958E0,-4.533773434E0,5.801322026E0,-9.961994863E-1,7.429862194E0
9.945779958E0,-3.559636370E0,6.224977359E0,9.946914893E-1,7.239527979E0
9.955821958E0,-3.434198684E0,7.381151403E0,2.574184066E0,8.538239879E0
9.965863958E0,-3.621013423E0,8.789179643E0,3.628681462E0,1.017490767E1
9.975905958E0,-3.643041346E0,9.748601897E0,4.524684230E0,1.134811687E1
9.985947958E0,-3.563601659E0,1.051398138E1,5.343105556E0,1.232038304E1
9.995989958E0,-3.417839636E0,1.106753494E1,5.136348011E0,1.267099161E1
1.000603196E1,-3.439050411E0,1.089374400E1,3.579925039E0,1.197149069E1
1.001607396E1,-3.190909489E0,1.039801939E1,1.865785704E0,1.103548218E1
1.002611596E1,-3.138695900E0,9.896226550E0,-7.017565101E-1,1.040572795E1
1.003615796E1,-3.386527504E0,9.211165010E0,-3.252114927E0,1.033878043E1
1.004619996E1,-3.285886105E0,8.510145834E0,-3.096604133E0,9.633721336E0
1.005624196E1,-2.895090955E0,8.079072724E0,-2.488911781E0,8.935751204E0
1.006628396E1,-2.413208465E0,8.114279979E0,-2.471432115E0,8.818905338E0
1.007632596E1,-2.420869195E0,8.716128039E0,-3.165003108E0,9.583774847E0
1.008636796E1,-3.702058171E0,9.372522435E0,-4.227976627E0,1.092818365E1
1.009640996E1,-5.085142189E0,9.431950611E0,-5.350147358E0,1.197682930E1
1.010645196E1,-6.008975365E0,8.861631907E0,-5.665044479E0,1.211317605E1
1.011649396E1,-6.044761494E0,7.965942550E0,-3.682510929E0,1.065627838E1
1.012653596E1,-4.896374772E0,6.919606698E0,-5.801701657E-1,8.496589915E0
1.013657796E1,-1.551346858E0,5.905948010E0,9.040369157E-1,6.172858472E0
1.014661996E1,4.239339814E0,5.101572281E0,-9.484663260E-1,6.700569391E0
1.015666196E1,8.863716440E0,4.205692304E0,-8.183716249E-1,9.844950431E0
1.016670396E1,9.575339541E0,8.422411287E-1,-3.121718509E0,1.010651393E1
1.017674596E1,1.151503639E1,-9.410265627E0,-8.133087548E0,1.694981638E1
1.018678796E1,8.536515023E0,-2.747905077E1,3.420611801E0,2.897707551E1
1.019682996E1,1.276434664E1,-6.285351264E1,-5.245629255E-1,6.413866043E1
1.020687296E1,1.929312661E1,-6.472630564E1,-2.068833776E0,6.757217955E1
1.021691496E1,3.543023553E0,-3.275951920E1,-5.828330315E0,3.346204638E1
1.022695696E1,-3.306273007E-1,-2.005446683E1,3.721284986E-2,2.005722661E1
1.023699896E1,5.848836501E0,-1.558126734E1,5.022275265E0,1.738413153E1
1.024704096E1,8.076622156E0,-1.467224516E1,5.102966841E0,1.750848006E1
1.025708296E1,6.701103850E0,-1.416585991E1,5.321473782E0,1.654975719E1
1.026712496E1,4.652489454E0,-1.149556165E1,3.750195959E0,1.295598570E1
1.027716696E1,1.999441944E0,-8.337733664E0,1.983317223E0,8.800518050E0
1.028720896E1,-9.830774572E-1,-5.420157825E0,4.927776074E-1,5.530586037E0
1.029725096E1,-3.526884069E0,-2.794908856E0,-9.335722983E-1,4.595865966E0
1.030729296E1,-5.009444720E0,-5.897969484E-1,-2.645337664E0,5.695630624E0
1.031733496E1,-4.572796290E0,1.342893181E0,-4.250600674E0,6.386034301E0
1.032737696E1,-3.112126444E0,3.423972781E0,-5.277010970E0,7.018245178E0
1.033741896E1,-2.645200254E0,5.332906843E0,-5.772732065E0,8.292250314E0
1.034746096E1,-2.773806547E0,6.640962898E0,-5.457871782E0,9.032427988E0
1.035750296E1,-3.340403498E0,7.027507707E0,-3.661586668E0,8.599498650E0
1.036754496E1,-3.579954275E0,7.438484522E0,-9.321590263E-1,8.307589605E0
1.037758696E1,-4.273522929E0,8.231385675E0,-1.266134443E0,9.360651942E0
1.038762896E1,-4.547917849E0,9.552088088E0,-4.289986349E0,1.141621332E1
1.039767096E1,-4.651507706E0,1.046407188E1,-6.722872449E0,1.327894342E1
1.040771296E1,-4.424348641E0,1.045148750E1,-7.123692650E0,1.339983018E1
1.041775496E1,-2.655411832E0,9.813529379E0,-6.415991861E0,1.202171046E1
1.042779696E1,-8.546464352E-1,9.632089693E0,-4.948902649E0,1.086274412E1
1.043783896E1,-2.801591054E-2,1.022512191E1,-2.755528443E0,1.058994050E1
1.044788096E1,2.019020176E-1,1.076276988E1,-2.395685931E-1,1.076732896E1
1.045792296E1,-5.040853916E-1,1.019641208E1,1.744619701E0,1.035686339E1
1.046796496E1,-1.229957427E0,9.322156858E0,3.533954229E0,1.004511007E1
1.047800696E1,-1.422117106E0,8.889490966E0,4.842323695E0,1.022220942E1
1.048804896E1,-9.501019384E-1,8.895910624E0,5.412676313E0,1.045643268E1
1.049809096E1,-3.140655009E-1,9.626896196E0,5.510654597E0,1.109698525E1
1.050813296E1,-7.538467231E-1,1.020034024E1,4.840106431E0,1.131555814E1
1.051817496E1,-1.279685950E0,1.042656550E1,3.364369773E0,1.103040563E1
1.052821696E1,-1.705682361E0,1.040963080E1,1.465323937E0,1.064973896E1
1.053825896E1,-2.066293453E0,1.034367888E1,-7.624787483E-3,1.054804814E1
1.054830196E1,-2.166158780E0,1.035406938E1,-7.809354115E-1,1.060701922E1
1.055834396E1,-1.600099919E0,1.056169349E1,-1.431160995E0,1.077765795E1
1.056838596E1,-3.521251738E-1,1.076222842E1,-2.271595334E0,1.100498515E1
1.057842796E1,8.097841117E-1,1.048100425E1,-1.835277271E0,1.067124374E1
1.058846996E1,1.283515145E0,9.621737782E0,-2.828718480E-1,9.711089824E0
1.059851196E1,1.121138843E0,8.113745543E0,-2.975590304E-1,8.196240628E0
1.060855396E1,-5.326094252E-1,6.790956843E0,-6.705225845E-1,6.844732879E0
1.061859596E1,-3.340596748E0,5.875670543E0,-1.736445147E0,6.978419069E0
1.062863796E1,-2.442898580E0,4.304327230E0,3.874715924E0,6.285571563E0
1.063867996E1,6.785546122E-1,4.440546890E0,9.199477011E0,1.023763988E1
1.064872196E1,2.253527145E-1,3.748790873E0,2.417126538E0,4.466174823E0
1.065876396E1,3.529330544E0,-7.866790144E0,-1.800230581E1,1.996060058E1
1.066880596E1,6.630585260E0,-2.573145367E1,-4.141901228E0,2.689289338E1
1.067884796E1,9.764330322E0,-4.802353299E1,4.984529150E0,4.925898292E1
1.068889083E1,6.735055708E0,-5.476314601E1,-2.215598888E0,5.522021383E1
1.069893283E1,-4.452108005E0,-3.660723502E1,-1.006652086E1,3.822624444E1
1.070897483E1,-5.516952049E0,-2.471952985E1,-6.187669784E0,2.607257512E1
1.071901683E1,3.279568774E0,-2.593596588E1,-3.194572477E0,2.633695485E1
1.072905883E1,8.109281779E0,-2.379627321E1,-3.966936748E-1,2.514319859E1
1.073910083E1,8.897508084E0,-1.799513712E1,1.581009929E0,2.013678730E1
1.074914283E1,8.062689410E0,-1.339065477E1,3.416876600E0,1.599973879E1
1.075918483E1,6.278829045E0,-9.692938158E0,4.008812460E0,1.222486489E1
1.076922683E1,3.937802119E0,-6.561084670E0,3.556159616E0,8.438032281E0
1.077926883E1,1.414185066E0,-3.728560676E0,2.926087046E0,4.946116609E0
1.078931083E1,-8.971285035E-1,-1.324266876E0,2.525404254E0,2.989345908E0
1.079935283E1,-2.048379046E0,6.717310578E-1,2.186408418E0,3.070417089E0
1.080939483E1,-1.599820568E0,2.957595937E0,1.357927944E-1,3.365299282E0
1.081943683E1,-1.008265508E0,5.414397733E0,-4.001595826E0,6.807721447E0
1.082947883E1,-9.401372597E-1,7.254248112E0,-7.034853564E0,1.014875058E1
1.083952083E1,-8.523970114E-1,8.211007544E0,-4.995704348E0,9.649056300E0
1.084956383E1,-1.134326507E0,8.562528700E0,-1.414311658E0,8.752363786E0
1.085960583E1,-2.072249719E0,8.972761164E0,-2.641655087E-1,9.212732777E0
1.086964783E1,-2.618737803E0,9.447412403E0,-2.326042413E0,1.007580578E1
1.087968983E1,-3.279279336E0,9.822482636E0,-4.813030899E0,1.141928652E1
1.088973183E1,-4.599729150E0,9.862631958E0,-8.195715905E0,1.362346419E1
1.089977383E1,-5.231535419E0,8.644144136E0,-1.130593060E1,1.516292378E1
1.090981583E1,-3.958124701E0,7.264357363E0,-1.055511888E1,1.341074843E1
1.091985783E1,-2.272678531E0,7.328203695E0,-5.291765249E0,9.320430063E0
1.092989983E1,-1.086812910E0,8.202371206E0,-6.427177584E-1,8.298984385E0
1.093994183E1,-1.675972804E-1,9.269417896E0,1.642284071E0,9.415269192E0
1.094998383E1,-1.576086281E-1,1.010366588E1,1.797235286E0,1.026347696E1
1.096002583E1,-4.651921982E-1,1.046933671E1,2.010500783E0,1.067077919E1
1.097006783E1,-1.617713779E0,1.024977961E1,2.626437709E0,1.070388504E1
1.098010983E1,-2.498195698E0,9.967942650E0,2.872124262E0,1.067004968E1
1.099015183E1,-2.967085968E0,9.956118411E0,2.549236336E0,1.069703224E1
1.100019383E1,-3.496826749E0,9.917903348E0,1.967908494E0,1.069884424E1
1.101023583E1,-4.008624764E0,9.742272286E0,1.658063952E0,1.066443237E1
1.102027783E1,-4.181852328E0,9.396086714E0,1.377907478E0,1.037655836E1
1.103031983E1,-3.916601284E0,9.006395518E0,4.772339541E-1,9.832735026E0
1.104036183E1,-3.947601467E0,8.463692045E0,-2.793888516E0,9.747997405E0
1.105040383E1,-4.015877943E0,7.816055024E0,-4.452942402E0,9.851227732E0
1.106044583E1,-4.248121455E0,7.156786137E0,-3.205518465E0,8.918602600E0
1.107048783E1,-5.145067964E0,6.630659519E0,-2.615729703E0,8.790870940E0
1.108052983E1,-5.582900455E0,6.929441130E0,-2.722160722E0,9.305702061E0
1.109057183E1,-6.141194360E0,7.692752448E0,-3.716653991E0,1.052170258E1
1.110061383E1,-6.619593079E0,8.603728182E0,-3.961309680E0,1.155573994E1
1.111065583E1,-6.067855657E0,9.176105690E0,-1.249332469E0,1.107161323E1
1.112069783E1,-4.714237513E0,9.612561162E0,1.347075695E0,1.079073586E1
1.113073983E1,-1.291526123E0,9.330182161E0,-1.259817696E0,9.503024756E0
1.114078183E1,5.203907910E0,6.568869653E0,-1.049861723E1,1.343323006E1
1.115082383E1,8.614589385E0,1.929346107E0,-8.921081718E0,1.255066634E1
1.116086583E1,9.712158540E0,-5.561904273E0,-3.482684673E0,1.172134357E1
1.117090783E1,8.809098768E0,-2.228470715E1,-1.814384000E0,2.403123765E1
1.118094983E1,1.103487590E1,-6.727005027E1,3.218920283E0,6.824507014E1
1.119099283E1,1.953686429E1,-8.043690871E1,9.249883518E0,8.329072994E1
1.120103483E1,6.629280746E0,-3.820191808E1,6.671708143E0,3.934266892E1
1.121107683E1,-2.454497409E-1,-2.284947100E1,1.993471352E0,2.293757831E1
1.122111883E1,3.280238572E0,-1.701462572E1,3.604257350E-1,1.733168659E1
1.123116083E1,6.578893535E0,-1.470082635E1,1.011543750E0,1.613751394E1
1.124120283E1,6.600427076E0,-1.200137037E1,1.961918607E0,1.383646099E1
1.125124483E1,4.375420894E0,-8.395502985E0,1.871182684E0,9.650393930E0
1.126128683E1,2.087336997E0,-5.766910577E0,3.114052005E-1,6.140945086E0
1.127132883E1,1.695023033E-1,-3.851698360E0,-1.919163766E0,4.306680955E0
1.128137083E1,-8.297237018E-1,-1.916058310E0,-3.585090469E0,4.148806399E0
1.129141283E1,4.009763217E-1,8.280043280E-1,-4.402196172E0,4.497299669E0
1.130145483E1,2.318945648E0,4.108312774E0,-4.837499158E0,6.757006798E0
1.131149683E1,6.696243060E-1,8.341471204E0,-1.003949386E1,1.306981161E1
1.132153883E1,-8.867539349E-1,9.592356108E0,-9.099901267E0,1.325171051E1
1.133158083E1,-1.892282654E0,9.806225622E0,-5.603621233E0,1.145178438E1
1.134162283E1,-3.216776986E0,9.853491590E0,-3.149017990E0,1.083306351E1
1.135166483E1,-4.578310507E0,9.904762316E0,-1.450180818E0,1.100764589E1
1.136170683E1,-5.502739806E0,9.763284840E0,-6.658920282E-1,1.122698929E1
1.137174883E1,-5.515164555E0,9.321783805E0,-2.455468047E-1,1.083388142E1
1.138179083E1,-4.670001572E0,8.781322739E0,-1.718648708E-1,9.947365544E0
1.139183283E1,-3.794192163E0,8.675695712E0,-2.908457690E-1,9.473551685E0
1.140187483E1,-3.266081586E0,8.863073246E0,-7.260873592E-1,9.473571615E0
1.141191683E1,-2.570317887E0,9.231113956E0,-5.405400038E-1,9.597509177E0
1.142195883E1,-1.858114595E0,9.755545465E0,2.711307303E-1,9.934624756E0
1.143200083E1,-1.288276971E0,1.058184650E1,1.219788900E0,1.072953950E1
1.144204283E1,-7.933059271E-1,1.120730328E1,1.422003086E0,1.132497567E1
1.145208483E1,-4.718830208E-1,1.139700917E1,1.038636239E0,1.145396250E1
1.146212683E1,-4.009242815E-1,1.141123428E1,5.881773428E-1,1.143341422E1
1.147216883E1,-6.173728560E-1,1.095435273E1,3.460991064E-1,1.097719352E1
1.148221083E1,-1.062399031E0,9.569366026E0,5.893432410E-1,9.646179725E0
1.149225283E1,-1.436846389E0,8.223518246E0,1.271265374E0,8.444341037E0
1.150229483E1,-1.992818656E0,7.927982426E0,2.050818504E0,8.427934983E0
1.151233683E1,-2.248873639E0,8.282404971E0,2.758719853E0,9.014776756E0
1.152237983E1,-2.334462989E0,8.555867552E0,2.728474545E0,9.278855552E0
1.153242183E1,-2.460702766E0,9.069724957E0,2.505495654E0,9.725866407E0
1.154246383E1,-2.357826562E0,9.729732347E0,2.141707624E0,1.023786839E1
1.155250583E1,-2.081736242E0,1.030183270E1,8.105842301E-1,1.054127267E1
1.156254783E1,-1.969820095E0,1.012197468E1,-1.992505392E0,1.050260160E1
1.157258983E1,-1.829480780E0,8.764687411E0,-3.519184163E0,9.620363948E0
1.158263183E1,-1.725905541E0,7.839873657E0,-4.419499837E0,9.163751835E0
1.159267383E1,-1.127131216E-1,6.730038212E0,2.560623204E0,7.201590781E0
1.160271583E1,1.298813508E0,5.401378323E0,1.278157721E1,1.393666102E1
1.161275783E1,-5.291984519E-1,4.438860553E0,8.674252034E0,9.758390357E0
1.162279983E1,4.647380157E-1,-3.826738935E0,-5.396762531E0,6.632115659E0
1.163284183E1,7.040495542E0,-2.524420051E1,-1.288124768E1,2.920213654E1
1.164288383E1,1.705578310E1,-5.427489415E1,-8.774720063E0,5.756439511E1
1.165292583E1,1.598687699E1,-6.160863575E1,-4.307713353E0,6.379467555E1
1.166296783E1,-2.830829471E0,-3.988217865E1,-3.803585715E0,4.016303068E1
1.167300983E1,-4.054173405E0,-2.650316451E1,-1.061006516E0,2.683243906E1
1.168305158E1,3.087802027E0,-2.336001011E1,1.437149713E0,2.360699034E1
1.169309358E1,6.339442452E0,-2.122245050E1,-1.175760462E0,2.218024681E1
1.170313558E1,7.081495049E0,-1.619109334E1,2.193986410E0,1.780765712E1
1.171317758E1,6.724135448E0,-9.758642151E0,3.690678320E0,1.241234066E1
1.172321958E1,5.980771905E0,-4.910649580E0,3.547180631E0,8.512731777E0
1.173326158E1,4.863812798E0,-1.972715490E0,2.325209624E0,5.740634210E0
1.174330358E1,3.822844982E0,5.743638074E-1,1.000935804E0,3.993233029E0
1.175334558E1,3.314248610E0,2.941005632E0,-2.081480134E-1,4.435885883E0
1.176338758E1,2.131291979E0,4.860860538E0,-2.219048746E0,5.752786108E0
1.177342958E1,2.388947198E-1,6.703143359E0,-4.733501750E0,8.209460420E0
1.178347158E1,-1.158939631E0,7.720619109E0,-5.421531336E0,9.504951474E0
1.179351358E1,-2.276491207E0,8.312554384E0,-3.018429784E0,9.131916062E0
1.180355558E1,-3.451209111E0,8.554154318E0,1.938094711E-1,9.226156434E0
1.181359758E1,-4.189624448E0,8.315962141E0,2.536135064E0,9.650915004E0
1.182363958E1,-4.693125264E0,7.800903134E0,2.600747382E0,9.468019930E0
1.183368158E1,-5.658888531E0,7.737362026E0,-2.131334225E-1,9.588285372E0
1.184372358E1,-6.919269898E0,8.011291215E0,-4.157397226E0,1.137281999E1
1.185376658E1,-7.755792450E0,7.991884307E0,-6.933131307E0,1.311833987E1
1.186380858E1,-7.458305998E0,7.496482469E0,-7.544723752E0,1.299024381E1
1.187385058E1,-6.083810370E0,7.097769604E0,-6.790117768E0,1.155408072E1
1.188389258E1,-4.429310296E0,7.180521154E0,-5.585577895E0,1.011816951E1
1.189393458E1,-3.202067146E0,7.807347350E0,-3.912885379E0,9.301536359E0
1.190397658E1,-2.446238363E0,8.796719627E0,-2.146259097E0,9.379380920E0
1.191401858E1,-1.973258551E0,9.740043327E0,-9.694870663E-1,9.985093815E0
1.192406058E1,-1.244127862E0,1.017522878E1,3.621529659E-2,1.025107050E1
1.193410258E1,-6.209168534E-1,1.010498735E1,6.198598230E-1,1.014300416E1
1.194414458E1,-9.628944768E-1,1.011447972E1,1.782352953E0,1.031535980E1
1.195418658E1,-1.356943017E0,1.050191272E1,5.120066439E0,1.176208083E1
1.196422858E1,-1.176084106E0,1.066900042E1,6.828770202E0,1.272174698E1
1.197427058E1,-8.035860631E-1,1.038551337E1,5.602845308E0,1.182778568E1
1.198431258E1,-1.250094215E0,1.021375726E1,3.889735082E0,1.100061870E1
1.199435458E1,-1.804334245E0,1.039961452E1,2.468060610E0,1.083969221E1
1.200439658E1,-2.826300802E0,1.049038201E1,-1.139243431E0,1.092400872E1
1.201443858E1,-3.656319496E0,1.022425418E1,-4.647454709E0,1.181113377E1
1.202448058E1,-3.412119305E0,9.864783733E0,-4.584183158E0,1.140049347E1
1.203452258E1,-2.575317256E0,9.692240585E0,-2.425987555E0,1.031780995E1
1.204456458E1,-1.642422212E0,9.825803854E0,-1.182374906E0,1.003204777E1
1.205460658E1,-1.524973138E0,9.646192592E0,-8.013574699E-1,9.798813622E0
1.206464858E1,-1.094622524E0,7.932205285E0,-3.704635624E0,8.822834253E0
1.207469058E1,1.168398964E0,4.417314148E0,-8.408514794E0,9.569793178E0
1.208473258E1,2.436745993E0,2.128930289E0,-7.716505008E0,8.367468240E0
1.209477458E1,2.772220197E0,-3.198294230E0,-7.050014809E0,8.222955650E0
1.210481658E1,4.251966291E0,-2.395721197E1,-3.611978013E0,2.459824400E1
1.211485858E1,8.773315562E0,-6.823285748E1,-6.378514132E-1,6.879753455E1
1.212490058E1,1.543165931E1,-7.235916740E1,4.690683174E0,7.413492918E1
1.213494258E1,3.074805713E0,-3.638519987E1,1.435696241E0,3.654310364E1
1.214498458E1,-2.786366073E0,-2.141679324E1,2.114163730E0,2.170051973E1
1.215502658E1,2.013562239E0,-1.607335731E1,5.671678730E0,1.716319282E1
1.216506858E1,4.037559711E0,-1.581726096E1,4.416158738E0,1.691124155E1
1.217511058E1,4.442399288E0,-1.509240736E1,3.157822727E0,1.604641754E1
1.218515258E1,3.710324380E0,-1.123401219E1,2.021094768E0,1.200226482E1
1.219519458E1,2.696925893E0,-6.868972149E0,1.642050548E-1,7.381270281E0
1.220523658E1,2.220339080E0,-3.672385306E0,-2.097623127E0,4.776645501E0
1.221527958E1,2.158898438E0,-2.224518231E0,-4.353014072E0,5.343973740E0
1.222532158E1,2.718659994E0,-3.431982297E-1,-7.066798657E0,7.579481542E0
1.223536358E1,3.000072450E0,2.552714260E0,-8.781035056E0,9.624103151E0
1.224540558E1,2.716106515E0,5.004010903E0,-9.789028376E0,1.132441770E1
1.225544758E1,1.888143410E0,6.976651549E0,-1.043831373E1,1.269634380E1
1.226548958E1,5.090455846E-1,8.024782496E0,-9.497288568E0,1.244406492E1
1.227553158E1,-9.986849914E-1,8.906280077E0,-6.161391812E0,1.087575035E1
1.228557358E1,-2.708824393E0,9.678809531E0,-1.908749290E0,1.023036692E1
1.229561558E1,-4.504246457E0,1.023303553E1,-2.936775756E-1,1.118434168E1
1.230565758E1,-6.039031223E0,1.039031978E1,2.933307626E-1,1.202142613E1
1.231569958E1,-7.084643775E0,1.043247119E1,3.332024876E-1,1.261505674E1
1.232574158E1,-7.541183263E0,1.010343199E1,-7.127993423E-2,1.260769066E1
1.233578358E1,-7.607938585E0,9.593722603E0,-1.479322537E-1,1.224508582E1
1.234582558E1,-6.905017310E0,9.281038653E0,3.740417075E-1,1.157397294E1
1.235586758E1,-5.245410862E0,9.158134857E0,1.343354527E0,1.063909632E1
1.236590958E1,-3.061776947E0,9.367364606E0,2.343457614E0,1.012984656E1
1.237595158E1,-1.047113020E0,9.977335618E0,3.285670928E0,1.055648167E1
1.238599358E1,1.902526098E-1,1.045609511E1,3.600906018E0,1.106040891E1
1.239603558E1,8.776812489E-1,1.052599857E1,3.060460739E0,1.099697187E1
1.240607758E1,1.503422640E0,1.037336519E1,1.805277547E0,1.063607127E1
1.241611958E1,2.494573640E0,1.030289923E1,5.587506453E-1,1.061531123E1
1.242616158E1,3.229513099E0,1.022284968E1,3.863840103E-3,1.072084070E1
1.243620358E1,2.327818651E0,9.849112025E0,1.088224209E0,1.017880048E1
1.244624558E1,4.870539142E-1,9.578921546E0,2.992100941E0,1.004717013E1
1.245628758E1,-3.405469559E-1,9.531479577E0,4.318302076E0,1.046961355E1
1.246632958E1,-3.565786325E-1,9.560206947E0,4.110735276E0,1.041262934E1
1.247637158E1,-2.756709288E-1,9.649809095E0,2.783652381E0,1.004706577E1
1.248641358E1,-3.950973849E-1,9.636921832E0,6.323413626E-1,9.665723974E0
1.249645558E1,-8.252030732E-1,9.116529579E0,-2.277227372E0,9.432806379E0
1.250649758E1,-1.531651828E0,8.037236481E0,-6.290275555E0,1.032040184E1
1.251653958E1,-1.766779479E0,7.512474019E0,-7.365798368E0,1.066835326E1
1.252658158E1,2.110325764E0,7.302141486E0,3.975968649E0,8.578057578E0
1.253662358E1,4.026263182E0,6.709163067E0,1.074128136E1,1.328904773E1
1.254666558E1,2.480407591E0,5.802324239E0,3.261964269E-1,6.318685979E0
1.255670758E1,4.352922855E0,-2.264503246E0,-6.659278132E0,8.271752992E0
1.256674958E1,5.341220999E0,-2.485427542E1,2.307873652E0,2.552625961E1
1.257679258E1,1.391117274E1,-7.054257315E1,-7.818089855E0,7.232494648E1
1.258683458E1,1.572830142E1,-6.856144761E1,-3.350251086E0,7.042212540E1
1.259687658E1,6.359817660E-1,-3.604330849E1,-4.603795304E0,3.634170457E1
1.260691858E1,-4.953610243E0,-2.185795396E1,-5.114056671E-1,2.241807176E1
1.261696058E1,5.709585352E-1,-1.809161267E1,2.956529989E0,1.834048833E1
1.262700258E1,3.592500061E0,-1.790984379E1,3.440964789E0,1.858786701E1
1.263704458E1,4.516330313E0,-1.567027716E1,2.141341588E0,1.644810535E1
1.264708658E1,3.961697350E0,-9.575882163E0,3.412454935E0,1.091042684E1
1.265712858E1,1.756062702E0,-4.184375694E0,4.792169788E0,6.599821773E0
1.266717058E1,-5.702732415E-1,-6.058229971E-1,5.091484079E0,5.159015720E0
1.267721258E1,-1.929613325E0,1.720370128E0,3.460799714E0,4.319747171E0
1.268725475E1,-2.303401848E0,3.727124600E0,6.706896687E-1,4.432487167E0
1.269729675E1,-1.689742413E0,6.203159643E0,-3.641092762E0,7.388638269E0
1.270733875E1,-4.824430923E-1,8.822262020E0,-7.081384537E0,1.132303252E1
1.271738075E1,-1.237150964E-1,1.047772630E1,-7.753561152E0,1.303517412E1
1.272742275E1,-6.260499778E-1,1.111955177E1,-6.193936245E0,1.274367358E1
1.273746475E1,-1.247629467E0,1.097979747E1,-4.101539360E0,1.178707584E1
1.274750675E1,-1.938183297E0,1.063268453E1,-3.165080876E0,1.126180588E1
1.275754875E1,-2.883450319E0,1.007026542E1,-3.415575594E0,1.101774423E1
1.276759075E1,-3.847524910E0,9.428127117E0,-3.769829739E0,1.085839054E1
1.277763275E1,-4.193101494E0,8.655718700E0,-4.221993172E0,1.050375136E1
1.278767475E1,-3.877713207E0,7.720125019E0,-4.380175558E0,9.686223616E0
1.279771675E1,-3.094658765E0,7.112445531E0,-4.369646477E0,8.902674016E0
1.280775875E1,-2.822352178E0,7.092779006E0,-4.014007126E0,8.624699360E0
1.281780075E1,-3.161979220E0,7.551512370E0,-2.847364227E0,8.667810260E0
1.282784275E1,-3.345201430E0,8.189157668E0,-1.384046470E0,8.953673020E0
1.283788475E1,-3.230865560E0,8.705723503E0,-2.326840540E-2,9.285938585E0
1.284792675E1,-3.339161841E0,8.985708654E0,9.396580803E-1,9.632025702E0
1.285796875E1,-3.333371344E0,9.202672514E0,6.793564117E-1,9.811323614E0
1.286801075E1,-3.007132378E0,9.702020053E0,9.142893505E-1,1.019842945E1
1.287805275E1,-2.891446971E0,1.027009752E1,2.200204339E0,1.089386377E1
1.288809475E1,-2.807854591E0,1.018782836E1,3.014551910E0,1.098924098E1
1.289813675E1,-2.851988498E0,9.768761342E0,2.673069838E0,1.052177927E1
1.290817875E1,-2.962048591E0,9.610199472E0,2.030141580E0,1.025919785E1
1.291822075E1,-2.913435425E0,9.587525139E0,1.669933215E0,1.015861315E1
1.292826275E1,-2.620255448E0,9.691505005E0,1.455148028E0,1.014438089E1
1.293830575E1,-2.030731710E0,9.896784375E0,1.373969963E0,1.019597988E1
1.294834775E1,-1.242291690E0,1.031104089E1,1.696754394E0,1.052329931E1
1.295838975E1,4.159658052E-2,1.109799075E1,1.432188351E0,1.119009796E1
1.296843175E1,1.741864785E0,1.172072039E1,-5.108946204E-1,1.186045499E1
1.297847375E1,4.420719859E0,1.076390774E1,-3.360707077E0,1.211192908E1
1.298851575E1,5.992685607E0,7.013575546E0,-7.202075161E0,1.170352124E1
1.299855775E1,4.805080148E0,2.628450905E0,-4.911416734E0,7.356600011E0
1.300859975E1,3.539973353E0,-1.003346889E1,-1.122997600E0,1.069873978E1
1.301864175E1,7.313227222E0,-4.737894529E1,-5.593115541E0,4.826521201E1
1.302868375E1,1.329418858E1,-7.912077999E1,-6.918799782E0,8.052765405E1
1.303872575E1,8.876179780E0,-5.712571116E1,-5.103653305E0,5.803602950E1
1.304876775E1,1.282098657E0,-2.873977829E1,-6.819889451E0,2.956568155E1
1.305880975E1,2.477502109E0,-1.811553012E1,3.653326306E0,1.864556895E1
1.306885175E1,4.606205526E0,-1.415757558E1,5.810124425E0,1.598160259E1
1.307889375E1,6.033662894E0,-1.562992787E1,7.388073921E-1,1.677037774E1
1.308893575E1,4.990352392E0,-1.510793757E1,-1.408991861E0,1.597306022E1
1.309897775E1,2.706484922E0,-1.014429467E1,5.881866252E-1,1.051559502E1
1.310901975E1,3.989543545E-1,-5.506984885E0,1.376325806E0,5.690370798E0
1.311906175E1,-2.057842180E0,-2.680198179E0,6.315717959E-1,3.437595038E0
1.312910375E1,-3.743915757E0,-1.018286759E-1,-1.988254612E0,4.240333793E0
1.313914575E1,-3.883459851E0,3.092066694E0,-5.658685632E0,7.527473676E0
1.314918775E1,-3.564668484E0,5.963056011E0,-5.374479377E0,8.783503114E0
1.315922975E1,-2.985786533E0,7.696314572E0,-4.043033874E0,9.192078226E0
1.316927175E1,-2.617641742E0,8.368358456E0,-3.867150212E0,9.583126958E0
1.317931375E1,-2.166195471E0,8.565551711E0,-3.142776087E0,9.377532749E0
1.318935575E1,-1.639663349E0,9.164496628E0,-1.293635652E0,9.399467408E0
1.319939775E1,-1.715021680E0,9.813059263E0,-1.372528040E0,1.005590695E1
1.320943975E1,-2.140299030E0,1.037860430E1,-2.752506602E0,1.094863461E1
1.321948175E1,-3.566956499E0,1.056679927E1,-4.179598519E0,1.191005749E1
1.322952375E1,-4.997666674E0,1.013919473E1,-4.570442786E0,1.219298525E1
1.323956575E1,-5.348702511E0,9.511142961E0,-3.002038284E0,1.131736245E1
1.324960775E1,-2.933058681E0,8.615126744E0,-2.760017935E0,9.510044219E0
1.325964975E1,-4.432158767E-1,8.537309659E0,-2.364629213E0,8.869812165E0
1.326969175E1,7.328027402E-1,9.577686614E0,-3.749234676E-1,9.612993724E0
1.327973375E1,1.084212946E0,1.050069182E1,1.292800670E0,1.063538340E1
1.328977575E1,9.544212766E-1,1.040594705E1,2.533140121E0,1.075227664E1
1.329981875E1,3.195535514E-1,1.025929070E1,4.037043986E0,1.102963663E1
1.330986075E1,-2.663685934E-1,1.043576785E1,4.909180759E0,1.153586835E1
1.331990275E1,-6.992315362E-1,1.039825211E1,4.779958463E0,1.146562579E1
1.332994475E1,-4.781442194E-1,1.000231492E1,3.922645551E0,1.075463034E1
1.333998675E1,-3.175890331E-1,9.507656266E0,2.613166283E0,9.865344824E0
1.335002875E1,-8.244837195E-1,9.185817330E0,1.595811571E0,9.359787818E0
1.336007075E1,-1.221946595E0,9.096495849E0,9.269637752E-1,9.224893065E0
1.337011275E1,-1.176753173E0,9.206707678E0,5.268878881E-1,9.296549099E0
1.338015475E1,-9.809704131E-1,9.545484243E0,2.026531655E-2,9.595779440E0
1.339019675E1,-6.519901268E-1,1.000571332E1,-6.472809255E-1,1.004780388E1
1.340023875E1,-4.509013107E-1,1.039811763E1,-1.612071508E0,1.053199586E1
1.341028075E1,-5.705399477E-1,1.052586877E1,-3.118515404E0,1.099293261E1
1.342032275E1,-9.016491321E-1,9.666363732E0,-4.708011982E0,1.078966801E1
1.343036475E1,-1.651455137E0,8.444252976E0,-5.376576773E0,1.014594945E1
1.344040675E1,-1.270611217E0,6.891251795E0,-5.977333742E0,9.210446397E0
1.345044875E1,3.573577886E0,4.269642132E0,-2.691440620E0,6.184185917E0
1.346049075E1,6.796129875E0,2.621199773E0,5.249581096E0,8.978650857E0
1.347053275E1,3.662605838E0,2.596773030E0,7.965188259E0,9.143420350E0
1.348057475E1,5.055536567E0,-1.004611992E1,-7.701617997E0,1.363077016E1
1.349061675E1,7.394805821E0,-4.981016610E1,-2.377220607E0,5.041217093E1
1.350065875E1,1.205008469E1,-7.595003141E1,1.208624153E0,7.690950906E1
1.351070075E1,5.920024597E0,-4.551511489E1,-4.063059418E0,4.607798636E1
1.352074275E1,-3.825158725E0,-2.605705002E1,-1.335395531E1,2.952845776E1
1.353078475E1,-1.086362236E0,-2.055768289E1,7.615296721E-2,2.058650791E1
1.354082675E1,2.806722570E0,-1.745556191E1,5.215091879E0,1.843289224E1
1.355086875E1,3.765083554E0,-1.533440959E1,3.728057523E-1,1.579426971E1
1.356091075E1,3.559021828E0,-1.232304441E1,-5.954680167E-2,1.282683148E1
1.357095275E1,2.661868035E0,-8.853675016E0,1.815237548E0,9.421687221E0
1.358099475E1,1.330704953E0,-5.200651596E0,1.816467948E0,5.667195823E0
1.359103675E1,-2.539219178E-2,-2.185977479E0,1.099607568E0,2.447096055E0
1.360107875E1,-4.681037461E-1,-3.125512183E-1,7.057402182E-1,9.027062848E-1
1.361112075E1,-2.610062581E-1,1.564493884E0,-9.964111555E-1,1.873125882E0
1.362116275E1,1.682698564E-1,3.990547512E0,-3.140993271E0,5.081202901E0
1.363120475E1,1.379752859E-2,6.443169719E0,-4.254649871E0,7.721183324E0
1.364124675E1,-1.007263295E-1,8.023248771E0,-3.579095319E0,8.785931365E0
1.365128975E1,1.657680960E0,7.663077829E0,-1.591575848E0,8.000236350E0
1.366133175E1,-1.141968672E0,9.379280646E0,-2.843834263E0,9.867238277E0
1.367137375E1,-4.783765000E0,1.043542988E1,3.687633090E0,1.205741441E1
1.368141575E1,-4.479268321E0,9.569330358E0,6.206060447E0,1.225361638E1
1.369145758E1,-4.061025757E0,1.017828571E1,1.883075336E0,1.111914578E1
1.370149958E1,-3.913602247E0,1.007976246E1,-4.505934548E-1,1.082224230E1
1.371154158E1,-4.790669392E0,9.827293725E0,-7.033228623E0,1.299971231E1
1.372158358E1,-5.332914444E0,9.233377998E0,-8.735963548E0,1.378449509E1
1.373162558E1,-4.325820718E0,8.549050868E0,-5.401399373E0,1.099882316E1
1.374166758E1,-3.067912431E0,8.237973148E0,-2.232885597E0,9.069843789E0
1.375170958E1,-1.852853417E0,8.368018148E0,2.022072788E-1,8.573078869E0
1.376175158E1,-9.831163412E-1,9.240602818E0,1.627248541E0,9.434150517E0
1.377179358E1,-7.077757801E-1,1.006590924E1,2.052366847E0,1.029736301E1
1.378183558E1,-6.848720902E-1,1.006482634E1,1.926124291E0,1.027033270E1
1.379187758E1,-3.184886272E-1,9.831494365E0,1.194096161E0,9.908863814E0
1.380191958E1,4.492887948E-1,9.837189553E0,6.158264136E-1,9.866681351E0
1.381196158E1,1.147702598E0,9.861825042E0,1.035916114E0,9.982281132E0
1.382200358E1,8.709842867E-1,9.711049324E0,1.698092237E0,9.896797959E0
1.383204558E1,-3.199879995E-1,9.541799912E0,1.776451943E0,9.711030810E0
1.384208758E1,-1.174536202E0,9.477093455E0,1.420314410E0,9.654642855E0
1.385212958E1,-1.977252930E0,9.347082953E0,8.236598468E-1,9.589364131E0
1.386217158E1,-2.540247411E0,9.285738060E0,4.009260356E-1,9.635275290E0
1.387221358E1,-2.382657056E0,9.462254391E0,-4.610887684E-2,9.757737383E0
1.388225558E1,-1.987376799E0,9.653786371E0,-2.107067549E-1,9.858481383E0
1.389229758E1,-1.529563056E0,9.155870231E0,-1.314016707E0,9.375295341E0
1.390233958E1,-1.091608212E0,8.219495362E0,-2.248794701E0,8.591204229E0
1.391238158E1,9.933089152E-2,7.294772825E0,-2.538878578E0,7.724602360E0
1.392242358E1,2.152695712E0,5.170743672E0,-1.513037217E-1,5.602997570E0
1.393246558E1,1.759622925E0,3.830745447E0,6.352163655E0,7.623704258E0
1.394250758E1,2.350846302E0,-5.013478130E0,-6.554038775E0,8.580027130E0
1.395254958E1,8.048350284E0,-2.685034177E1,-1.405910846E1,3.135881577E1
1.396259158E1,1.303250463E1,-5.387336351E1,-2.544261525E0,5.548566247E1
1.397263358E1,1.452796628E1,-5.899938827E1,4.950020052E0,6.096304059E1
1.398267558E1,2.734660315E0,-3.547599292E1,4.616989838E0,3.587953505E1
1.399271758E1,-5.122048645E0,-2.406827165E1,-1.547087892E0,2.465584238E1
1.400275958E1,-2.118392875E-1,-2.190459136E1,-2.924820246E0,2.210001294E1
1.401280158E1,3.146884925E0,-2.100059077E1,1.329038204E0,2.127660781E1
1.402284358E1,4.008640552E0,-1.698365652E1,3.940361445E0,1.788966842E1
1.403288558E1,3.384329243E0,-1.107413060E1,4.390199440E0,1.238401809E1
1.404292758E1,1.856681150E0,-6.191277516E0,3.497112093E0,7.349079886E0
1.405297058E1,-3.729880393E-2,-2.383977064E0,2.436140514E0,3.408741476E0
1.406301258E1,-1.232404925E0,-1.217156410E-1,1.287119515E0,1.786144799E0
1.407305458E1,-6.491372703E-1,9.510198051E-1,-9.242834846E-1,1.476522206E0
1.408309658E1,3.725293252E-1,3.125053176E0,-3.819920497E0,4.949396737E0
1.409313858E1,1.225826808E0,5.818087163E0,-6.118797770E0,8.531850663E0
1.410318058E1,1.166513675E0,7.570000096E0,-6.349516035E0,9.948970273E0
1.411322258E1,4.867409420E-1,8.888536701E0,-4.341917226E0,9.904304449E0
1.412326458E1,-2.372009276E-1,9.611204023E0,-1.561838078E0,9.740166592E0
1.413330658E1,-1.067005906E0,9.879256761E0,-6.065883976E-1,9.955207945E0
1.414334858E1,-1.929347277E0,1.000789434E1,-1.410739594E0,1.028933993E1
1.415339058E1,-2.826773842E0,1.035080196E1,-3.533373601E0,1.129665794E1
1.416343258E1,-3.898154488E0,1.048524114E1,-5.845642751E0,1.262170469E1
1.417347458E1,-5.105265382E0,9.831859231E0,-6.229116603E0,1.270948796E1
1.418351658E1,-5.443875301E0,8.784103090E0,-5.545766543E0,1.172824675E1
1.419355858E1,-4.631748795E0,7.945647449E0,-4.301187276E0,1.015315824E1
1.420360058E1,-3.432509716E0,7.523484911E0,-2.154647512E0,8.545610221E0
1.421364258E1,-3.095817098E0,7.954490778E0,7.221428275E-2,8.535995662E0
1.422368458E1,-3.191732192E0,8.888341988E0,1.594469050E0,9.577688095E0
1.423372658E1,-3.073985641E0,9.483108485E0,2.595425831E0,1.030121204E1
1.424376858E1,-2.640207025E0,9.338780492E0,3.218858303E0,1.022470356E1
1.425381058E1,-2.077414126E0,9.632151673E0,3.389216931E0,1.042021049E1
1.426385258E1,-1.432147566E0,1.032155068E1,3.427816740E0,1.096974852E1
1.427389458E1,-9.659437998E-1,1.044355751E1,2.983546464E0,1.090424185E1
1.428393658E1,-1.447535830E0,1.020382518E1,2.182797178E0,1.053461018E1
1.429397858E1,-2.026813930E0,9.837581316E0,1.447583485E0,1.014797905E1
1.430402058E1,-2.111314528E0,9.489485459E0,1.004531695E0,9.773283340E0
1.431406258E1,-1.771002338E0,9.186571037E0,6.116303786E-1,9.375693490E0
1.432410458E1,-1.389821180E0,9.128840307E0,4.000664949E-2,9.234117651E0
1.433414658E1,-1.078008027E0,9.374092997E0,-6.682607353E-1,9.459508086E0
1.434418858E1,-4.728761704E-1,9.752753420E0,3.346233610E-1,9.769942883E0
1.435423058E1,8.627093071E-1,9.918794464E0,1.911984701E0,1.013816731E1
1.436427258E1,1.891958718E0,9.491102799E0,9.616689004E-2,9.678315359E0
1.437431458E1,2.444743376E0,7.874767501E0,-1.387656395E0,8.361478556E0
1.438435658E1,2.547998480E0,5.135797788E0,-2.945124118E-1,5.740683995E0
1.439439858E1,1.209975445E0,2.444992175E0,-1.102310078E0,2.942297541E0
1.440444058E1,1.670833687E0,-7.800789698E0,-5.312067951E0,9.584470305E0
1.441448258E1,8.080778942E0,-4.163413075E1,-1.330137013E1,4.444801772E1
1.442452458E1,1.503674421E1,-7.929884408E1,-6.448122311E0,8.096905971E1
1.443456658E1,8.432800620E0,-5.929062638E1,-2.164454463E0,5.992641626E1
1.444460858E1,-4.963414269E0,-3.077070340E1,-3.396551678E0,3.135296210E1
1.445465058E1,-3.178548183E0,-2.000528941E1,7.726260502E0,2.167971112E1
1.446469258E1,1.621129138E0,-1.454036823E1,5.484222844E0,1.562456617E1
1.447473558E1,3.963150676E0,-1.147645412E1,-1.612275868E0,1.224806091E1
1.448477758E1,6.012019426E0,-8.528923582E0,-2.578053753E0,1.074864067E1
1.449481958E1,5.727528411E0,-4.782155846E0,1.856724858E-1,7.463783927E0
1.450486158E1,3.945221651E0,-1.171643438E0,1.579331778E0,4.408152797E0
1.451490358E1,1.908022189E0,9.497965676E-1,1.533829916E0,2.625889640E0
1.452494558E1,1.262102203E0,2.520645205E0,-1.777857614E-1,2.824564037E0
1.453498758E1,1.349142686E-1,3.473984016E0,-2.525592535E0,4.297136774E0
1.454502958E1,-1.246367053E0,4.709145758E0,-4.736154631E0,6.794162589E0
1.455507158E1,-1.583448510E0,6.794887342E0,-4.893104424E0,8.521752994E0
1.456511358E1,-1.788727880E0,8.348225908E0,-3.544587391E0,9.244269739E0
1.457515558E1,-1.776618004E0,9.366939513E0,-2.455296723E0,9.845019521E0
1.458519758E1,-2.389604132E0,9.940238543E0,-1.907221413E0,1.039980979E1
1.459523958E1,-3.660876524E0,1.036218298E1,-2.073189366E0,1.118369202E1
1.460528158E1,-4.655062229E0,1.054974529E1,-1.722530674E0,1.165906694E1
1.461532358E1,-5.252517568E0,1.038480937E1,-1.528165133E0,1.173748248E1
1.462536558E1,-5.570783855E0,9.550416954E0,-2.380572231E0,1.130978430E1
1.463540758E1,-5.069999655E0,8.355065396E0,-3.880184825E0,1.051512475E1
1.464544958E1,-4.525613645E0,7.797863166E0,-4.785879353E0,1.020747226E1
1.465549158E1,-4.148893913E0,7.734100449E0,-3.949133438E0,9.624203103E0
1.466553358E1,-3.623082168E0,7.866176772E0,-2.515252318E0,9.018312238E0
1.467557558E1,-3.291104161E0,8.319780958E0,-1.712947673E0,9.109572521E0
1.468561696E1,-3.069438846E0,9.023367062E0,-9.305726767E-1,9.576459339E0
1.469565896E1,-2.654200873E0,9.307616587E0,4.276559973E-1,9.688106030E0
1.470570096E1,-1.599450147E0,9.679273215E0,1.991836470E0,1.001069345E1
1.471574296E1,-7.191334118E-1,1.038170332E1,3.539277534E0,1.099196990E1
1.472578496E1,3.194222814E-1,1.058772880E1,4.262900877E0,1.141815903E1
1.473582696E1,8.159624259E-1,1.065401167E1,3.762157023E0,1.132817658E1
1.474586896E1,4.736782622E-1,1.078846137E1,2.744552050E0,1.114216477E1
1.475591096E1,2.267047369E-1,1.074332087E1,1.329352784E0,1.082762749E1
1.476595296E1,-7.591147721E-4,1.062570179E1,-1.628332615E-1,1.062694941E1
1.477599496E1,-3.098359175E-1,1.040710129E1,-1.108326863E0,1.047053695E1
1.478603696E1,-3.468920620E-1,1.016597381E1,-2.005213730E0,1.036765353E1
1.479607896E1,-1.583148256E-1,9.672452438E0,-2.912975249E0,1.010281270E1
1.480612096E1,7.040603131E-1,8.801552351E0,-2.696497293E0,9.232232794E0
1.481616296E1,2.142367190E0,7.622257247E0,-2.709593886E0,8.368419310E0
1.482620496E1,4.039613838E0,6.319982334E0,-5.887508816E0,9.535377114E0
1.483624696E1,4.869794207E0,4.410386952E0,-3.887699082E0,7.634174011E0
1.484628896E1,3.771252952E0,-2.120311493E-1,1.297026014E0,3.993692842E0
1.485633096E1,1.918178656E0,-1.144021776E1,2.031067779E0,1.177638434E1
1.486637296E1,3.647356592E0,-3.632985948E1,-7.600698563E0,3.729520772E1
1.487641496E1,9.923531878E0,-6.574451171E1,-7.852423536E0,6.695130962E1
1.488645696E1,7.120372016E0,-5.701642436E1,-2.052035748E0,5.749594068E1
1.489649896E1,-7.066321524E0,-3.259421373E1,-3.444481305E0,3.352879539E1
1.490654096E1,-4.069410664E0,-2.185370421E1,4.218494782E0,2.262609531E1
1.491658296E1,1.458372621E0,-1.903582807E1,5.515345234E0,1.987230822E1
1.492662596E1,4.075425110E0,-1.974613614E1,4.283190715E0,2.061224648E1
1.493666796E1,4.761515760E0,-1.715601841E1,3.606864331E0,1.816619031E1
1.494670996E1,4.356481470E0,-1.214946163E1,2.880315042E0,1.322439274E1
1.495675196E1,3.328774847E0,-7.624427733E0,1.746186755E0,8.500694585E0
1.496679396E1,1.175817180E0,-4.595063072E0,1.908806191E-1,4.746955454E0
1.497683596E1,4.674920543E-1,-2.012092395E0,-3.015353563E0,3.655054273E0
1.498687796E1,3.757585962E-1,2.971601772E-1,-6.608592128E0,6.625933036E0
1.499691996E1,6.827735245E-1,2.746888012E0,-1.025075376E1,1.063435593E1
1.500696196E1,1.724693998E0,5.515511879E0,-1.122795447E1,1.262784235E1
1.501700396E1,2.401168171E0,7.613651315E0,-1.035519556E1,1.307529617E1
1.502704596E1,2.384427592E0,8.677249317E0,-7.690362691E0,1.183730666E1
1.503708796E1,1.516641733E0,8.999499897E0,-4.632057821E0,1.023460601E1
1.504712996E1,-1.639670366E-1,9.193376611E0,-2.609621701E0,9.557990590E0
1.505717196E1,-1.702689902E0,1.010553816E1,-2.839952881E0,1.063420833E1
1.506721396E1,-4.595042899E0,1.074180995E1,-4.673376585E0,1.258337589E1
1.507725596E1,-6.407760150E0,1.005833593E1,-4.406709638E0,1.271411033E1
1.508729796E1,-7.638706634E0,8.102473281E0,-2.070221320E0,1.132632900E1
1.509733996E1,-7.622958913E0,6.620519863E0,6.174038462E-3,1.009657486E1
1.510738196E1,-7.486276739E0,6.148232068E0,1.445974331E0,9.794689313E0
1.511742396E1,-6.875790587E0,6.872745942E0,2.661475979E0,1.007941404E1
1.512746596E1,-5.121677932E0,8.332407435E0,3.508254547E0,1.039078671E1
1.513750796E1,-2.825313500E0,1.024250802E1,4.774755026E0,1.164859015E1
1.514754996E1,-1.078206101E0,1.123760823E1,5.395785461E0,1.251242853E1
1.515759196E1,-5.439471763E-1,1.134464853E1,4.252407464E0,1.212765014E1
1.516763396E1,-7.029337008E-1,1.136351866E1,3.181039681E0,1.182128105E1
1.517767596E1,-6.497376332E-1,1.118704969E1,1.645432212E0,1.132606229E1
1.518771796E1,-7.516869079E-1,1.070029004E1,-1.314161718E-2,1.072666830E1
1.519775996E1,-1.381514918E0,1.017209468E1,-2.781388924E0,1.063561084E1
1.520780196E1,-1.415296037E0,9.790170922E0,-2.856543771E0,1.029613286E1
1.521784396E1,-9.355770162E-1,9.515881544E0,-1.206488750E0,9.637578587E0
1.522788596E1,-8.095449606E-1,9.291589369E0,-3.229943683E-2,9.326845088E0
1.523792796E1,-8.939407477E-1,9.028920747E0,6.273734951E-1,9.094731300E0
1.524796996E1,-7.478487955E-1,8.786862391E0,7.470168829E-2,8.818946017E0
1.525801196E1,-5.605208167E-1,8.826738063E0,-1.062464812E0,8.908104170E0
1.526805396E1,-4.370279145E-1,9.257118278E0,-2.011760273E0,9.483270091E0
1.527809596E1,-4.935280976E-1,9.837746208E0,-2.820116787E0,1.024587132E1
1.528813796E1,-7.645244698E-1,1.009579436E1,-4.054874486E0,1.090649203E1
1.529817996E1,-1.271281308E0,9.354175626E0,-6.977663702E0,1.173901821E1
1.530822196E1,-2.446012953E0,7.584029905E0,-9.755734330E0,1.259662023E1
1.531826396E1,-3.532829225E0,6.249744410E0,-9.212622721E0,1.167958068E1
1.532830596E1,9.364991221E-1,4.070370192E0,-1.842635261E0,4.565112136E0
1.533834796E1,4.908774378E0,2.660940374E0,8.838494475E0,1.045445619E1
1.534838996E1,1.367125505E0,1.715526879E0,1.158218932E1,1.178809459E1
1.535843196E1,3.056804183E0,-1.347377645E1,-5.172915913E0,1.475282219E1
1.536847396E1,9.516846335E0,-5.552082354E1,-5.441001395E0,5.659272663E1
1.537851696E1,1.706534446E1,-7.670152024E1,-5.983946943E-1,7.857930558E1
1.538855896E1,3.364125359E0,-4.550710187E1,1.655611045E0,4.566130427E1
1.539860096E1,-8.638796273E0,-2.830421452E1,-1.870478971E-1,2.959378900E1
1.540864296E1,-1.400909255E0,-2.178157997E1,7.639598481E-1,2.183994980E1
1.541868496E1,5.447880644E0,-1.951927352E1,4.520413716E-1,2.027031780E1
1.542872696E1,7.295141199E0,-1.764561747E1,1.780645566E0,1.917700706E1
1.543876896E1,6.219284509E0,-1.276806664E1,2.463776940E0,1.441434085E1
1.544881096E1,4.474209895E0,-7.833074514E0,2.807383890E0,9.447593071E0
1.545885296E1,3.522872586E0,-3.484841711E0,1.010857286E0,5.057329875E0
1.546889496E1,2.953363137E0,-1.842223763E-1,-1.699329507E0,3.412332410E0
1.547893696E1,2.568057353E0,2.322654975E0,-4.363346102E0,5.570317218E0
1.548897896E1,2.807946100E0,4.574650442E0,-6.663177055E0,8.556279357E0
1.549902096E1,2.480911621E0,6.154865735E0,-8.796441885E0,1.101883317E1
1.550906296E1,1.201589368E0,7.544075296E0,-9.723863497E0,1.236569490E1
1.551910496E1,-8.663073912E-1,8.209445753E0,-8.562427543E0,1.189372328E1
1.552914696E1,-2.785077640E0,7.529118703E0,-5.085833330E0,9.503156663E0
1.553918896E1,-3.756267415E0,6.884480719E0,-1.593337614E0,8.002771046E0
1.554923096E1,-4.715940515E0,7.174858711E0,-1.395467252E-1,8.587092974E0
1.555927296E1,-5.603117788E0,7.997557275E0,-4.815463487E-1,9.776898189E0
1.556931496E1,-5.987017901E0,8.913262237E0,-8.218992501E-1,1.076875784E1
1.557935696E1,-6.396111327E0,9.321617160E0,-6.997327888E-1,1.132662406E1
1.558939896E1,-6.739857441E0,9.285873131E0,-3.230815055E-1,1.147856697E1
1.559944096E1,-6.359451039E0,8.962257811E0,-5.034726765E-4,1.098929856E1
1.560948296E1,-4.567149049E0,8.665932616E0,2.115698040E-1,9.798061049E0
1.561952496E1,-2.513626792E0,8.706836813E0,1.226646441E0,9.145052675E0
1.562956696E1,-7.353702526E-1,9.233787888E0,2.683447477E0,9.643883996E0
1.563960896E1,7.196754487E-1,9.829939005E0,2.479856783E0,1.016343068E1
1.564965096E1,1.208935225E0,1.004905055E1,1.863920442E0,1.029170252E1
1.565969296E1,1.180556349E0,1.009477694E1,1.825418866E0,1.032619915E1
1.566973496E1,1.295519040E0,1.015191827E1,2.069715536E0,1.044143365E1
1.567977696E1,1.025551339E0,1.029446988E1,2.262870119E0,1.059001638E1
1.568981958E1,5.867916258E-1,1.029766948E1,2.233973179E0,1.055352819E1
1.569986158E1,-5.579705536E-2,1.010272214E1,1.974741551E0,1.029406199E1
1.570990358E1,-9.745678581E-1,1.000120863E1,1.877393742E0,1.022245390E1
1.571994558E1,-1.854350889E0,1.004829860E1,2.066311287E0,1.042480524E1
1.572998758E1,-2.180971970E0,1.017113106E1,2.182917631E0,1.062890752E1
1.574002958E1,-2.056389146E0,1.031675713E1,2.113757933E0,1.072996676E1
1.575007158E1,-1.789879343E0,1.047816835E1,1.524102341E0,1.073864833E1
1.576011358E1,-1.723210559E0,1.030974632E1,3.211992502E-2,1.045281567E1
1.577015558E1,-2.280049823E0,9.092720886E0,-2.133667703E0,9.613986591E0
1.578019758E1,-3.687409726E0,7.409922627E0,-5.220859573E0,9.785771227E0
1.579023958E1,-5.619090627E0,5.077154308E0,-8.133894464E0,1.111359143E1
1.580028158E1,-4.445684838E0,5.996723109E-1,-3.346230540E0,5.596514933E0
1.581032358E1,2.884498432E0,-2.995835558E0,4.331704186E0,6.004916573E0
1.582036558E1,6.104126521E0,-3.414947603E0,8.325053977E0,1.087330453E1
1.583040758E1,1.125881023E1,-1.357582206E1,-1.089557886E1,2.073107308E1
1.584044958E1,1.552740279E1,-3.435814328E1,-6.285402485E0,3.822418778E1
1.585049158E1,1.036846406E1,-6.279139649E1,3.544288598E0,6.374030516E1
1.586053358E1,-1.431205434E0,-5.203561638E1,7.426069129E0,5.258231855E1
1.587057558E1,-9.011975808E-1,-2.817220310E1,-4.460925314E0,2.853743225E1
1.588061858E1,3.491956895E0,-2.137926815E1,-4.180748667E0,2.206231014E1
1.589066058E1,6.729202060E0,-1.694225122E1,2.538165218E0,1.840555132E1
1.590070258E1,7.786307899E0,-1.427092502E1,4.294728441E0,1.681459438E1
1.591074458E1,6.240380094E0,-1.090378133E1,4.787658076E0,1.344456994E1
1.592078658E1,4.593361240E0,-7.293509241E0,4.457072875E0,9.703594342E0
1.593082858E1,2.498495952E0,-4.355623099E0,2.941590353E0,5.819526477E0
1.594087058E1,5.960736421E-1,-1.899383805E0,2.256732881E0,3.009286613E0
1.595091258E1,-2.146511404E-1,1.800550658E-1,2.298006037E0,2.315021963E0
1.596095458E1,-2.984689303E-1,2.243925140E0,1.473954427E0,2.701263665E0
1.597099658E1,-2.904447962E-1,4.673528028E0,-1.522330781E0,4.923790554E0
1.598103858E1,-2.702840352E-1,6.976859710E0,-5.488135800E0,8.880836640E0
1.599108058E1,-4.827955332E-1,8.760876780E0,-6.284592061E0,1.079268970E1
1.600112258E1,-1.759317555E0,9.657044440E0,-4.612370245E0,1.084562884E1
1.601116458E1,-3.170347463E0,9.572538725E0,-1.777322009E0,1.023931024E1
1.602120658E1,-3.950478005E0,8.613064431E0,-7.316913307E-1,9.504026913E0
1.603124858E1,-4.597042062E0,7.885537487E0,-1.843018985E0,9.311885747E0
1.604129058E1,-4.761329526E0,8.485541335E0,-4.253714901E0,1.061926368E1
1.605133258E1,-4.826506977E0,8.764277521E0,-7.605376335E0,1.256779532E1
1.606137458E1,-4.501782733E0,7.509990122E0,-1.018460421E1,1.343101494E1
1.607141658E1,-4.033792934E0,6.503674952E0,-1.037989420E1,1.289618071E1
1.608145858E1,-3.575933437E0,6.412321563E0,-7.768110194E0,1.068871853E1
1.609150058E1,-2.773143180E0,7.094265953E0,-3.458148587E0,8.365268923E0
1.610154258E1,-2.327436097E0,8.163186675E0,-1.146145558E0,8.565525385E0
1.611158458E1,-2.577727771E0,9.373795958E0,4.150002837E-2,9.721854421E0
1.612162658E1,-3.090856320E0,9.469808409E0,1.404578383E0,1.005999525E1
1.613166858E1,-3.102868840E0,8.949617885E0,3.339654762E0,1.004374180E1
1.614171058E1,-2.743500720E0,9.525296146E0,5.042922953E0,1.112156171E1
1.615175258E1,-2.477582801E0,1.040392040E1,6.580262368E0,1.255706292E1
1.616179458E1,-1.677044161E0,1.081659116E1,7.724252568E0,1.339683541E1
1.617183658E1,-1.427889916E0,1.088092924E1,6.683174533E0,1.284905882E1
1.618187858E1,-1.840244189E0,1.093069022E1,4.375251617E0,1.191676609E1
1.619192058E1,-1.807717444E0,1.069086199E1,2.473800237E0,1.112124364E1
1.620196258E1,-1.546626401E0,1.033450460E1,8.685500908E-1,1.048562911E1
1.621200458E1,-1.357202634E0,1.004233794E1,-6.675403583E-1,1.015559750E1
1.622204658E1,-1.017214233E0,9.737122643E0,-2.772040980E0,1.017499353E1
1.623208858E1,-1.842834798E-1,9.539225968E0,-3.215961592E0,1.006842597E1
1.624213058E1,1.695341414E0,9.612199804E0,-4.908456874E-1,9.772896043E0
1.625217258E1,3.546728349E0,9.534166957E0,-1.597365761E0,1.029714518E1
1.626221458E1,4.209295943E0,8.981562978E0,-3.389771247E0,1.048223235E1
1.627225658E1,2.960283902E0,7.222223496E0,3.290319464E0,8.470536889E0
1.628229858E1,5.858052005E-1,4.964881920E0,7.397477413E0,8.928375681E0
1.629234058E1,1.560453750E-1,-4.712510830E0,-8.449966875E0,9.676468812E0
1.630238258E1,4.420329557E0,-3.179669094E1,-2.268373518E1,3.930802348E1
1.631242458E1,1.228491121E1,-6.672623115E1,-1.187820695E1,6.887961068E1
1.632246658E1,1.283995698E1,-6.681589002E1,-6.050122222E0,6.830689301E1
1.633250858E1,-1.028971668E0,-3.542424974E1,-2.001992061E0,3.549569304E1
1.634255058E1,-3.462696259E0,-1.886382287E1,9.555733827E0,2.142769534E1
1.635259258E1,2.680512174E0,-1.554919887E1,4.514755073E-1,1.578501065E1
1.636263458E1,6.488427168E0,-1.724805124E1,-3.118949268E0,1.869017933E1
1.637267658E1,8.182081953E0,-1.642125846E1,1.214298291E0,1.838691695E1
1.638271858E1,7.033880002E0,-1.262882572E1,5.605007608E0,1.550415484E1
1.639276058E1,4.511498174E0,-8.541016209E0,5.855034549E0,1.129530890E1
1.640280258E1,2.338514086E0,-5.139475687E0,5.301014374E0,7.744908770E0
1.641284458E1,7.158021069E-1,-2.333672299E0,3.569906420E0,4.324653847E0
1.642288758E1,-5.851033884E-1,-6.466084957E-2,8.637799323E-1,1.045295543E0
1.643292858E1,-8.112412378E-1,1.531229659E0,-3.797388251E0,4.174078838E0
1.644297158E1,4.157488735E-1,3.215624208E0,-9.619105951E0,1.015087609E1
1.645301358E1,4.836239960E0,5.732637123E0,-1.006606828E1,1.255301064E1
1.646305558E1,7.343642684E0,1.099255727E1,-9.688880190E0,1.639023497E1
1.647309758E1,-9.520921844E-1,1.191023332E1,8.469034061E-3,1.194823037E1
1.648313958E1,-6.535699568E0,8.439052463E0,2.062701800E0,1.087141730E1
1.649318158E1,-6.773930921E0,7.016121424E0,5.931392169E-1,9.770563652E0
1.650322358E1,-7.083788912E0,7.797275521E0,-4.565854475E0,1.148148936E1
1.651326558E1,-7.583105460E0,8.394134152E0,-9.102438959E0,1.451962023E1
1.652330758E1,-7.671965597E0,7.855466427E0,-8.772801007E0,1.405451694E1
1.653334958E1,-5.765019003E0,6.775635969E0,-7.002810237E0,1.132183899E1
1.654339158E1,-4.016280231E0,6.752712545E0,-4.386900440E0,8.998584838E0
1.655343358E1,-2.862548277E0,7.402889596E0,-1.648923000E0,8.106534652E0
1.656347558E1,-2.615406936E0,8.588834154E0,5.200513601E-1,8.993268537E0
1.657351758E1,-3.051286750E0,9.924752777E0,2.016890620E0,1.057728303E1
1.658355958E1,-2.974496729E0,1.032674885E1,3.773154466E0,1.138973517E1
1.659360158E1,-2.810131789E0,1.036767001E1,5.891863822E0,1.225150935E1
1.660364358E1,-2.128292796E0,1.009599550E1,6.120888734E0,1.199683435E1
1.661368558E1,-1.332562613E0,9.939428118E0,5.361341268E0,1.137154056E1
1.662372758E1,-7.391794212E-1,9.918297451E0,4.692272447E0,1.099711013E1
1.663376958E1,-3.919793572E-1,9.805612834E0,3.715636575E0,1.049331435E1
1.664381158E1,-3.743792380E-1,9.552611999E0,2.358328253E0,9.846535836E0
1.665385358E1,-7.560805057E-1,9.293410776E0,-4.215023875E-2,9.324211400E0
1.666389558E1,-1.329201634E0,9.040104132E0,-2.401702899E0,9.447668311E0
1.667393758E1,-1.525114202E0,9.056818398E0,-2.666817995E0,9.563673512E0
1.668397958E1,-1.668781460E0,9.141942748E0,-3.118998384E0,9.802453759E0
1.669402096E1,-1.797955809E0,9.220094293E0,-3.790217811E0,1.012958711E1
