"Time (s)","Linear Acceleration x (m/s^2)","Linear Acceleration y (m/s^2)","Linear Acceleration z (m/s^2)","Absolute acceleration (m/s^2)"
8.401208324E-3,-4.823777497E-2,3.782306528E-1,-5.252027571E-1,6.490171383E-1
1.833520835E-2,2.613459814E-1,1.034553713E-1,-6.586829960E-1,7.161480469E-1
2.827020834E-2,-4.716719364E-1,6.338060170E-2,-1.918956774E-1,5.131427357E-1
3.820420837E-2,-1.190532137E0,2.975300136E-1,-1.710257953E-1,1.239007950E0
4.813920835E-2,-2.468596508E-1,4.523531744E-1,-8.026063621E-1,9.538029430E-1
5.807320838E-2,-2.199332227E-1,4.906813806E-1,-1.058685172E0,1.187414474E0
6.800820836E-2,-6.408215064E-1,5.075348103E-1,-7.153466088E-1,1.086261735E0
7.794220833E-2,-8.535782951E-1,6.389299321E-1,-3.229417205E-2,1.066710025E0
8.787720837E-2,-9.828882998E-1,7.448525360E-1,4.061394131E-1,1.298392827E0
9.781120834E-2,-8.264273340E-1,9.030384305E-1,5.293981344E-1,1.333687718E0
1.077462084E-1,-6.133315529E-1,8.650008309E-1,3.428976828E-1,1.114441946E0
1.176802084E-1,-5.873232839E-1,7.029288769E-1,2.261346334E-1,9.435012020E-1
1.276152083E-1,-3.986942996E-1,7.289185810E-1,4.709715861E-1,9.550359560E-1
1.375502084E-1,-2.617798448E-2,8.183219236E-1,8.081957155E-1,1.150441816E0
1.474842083E-1,1.348347464E-1,6.962294295E-1,9.740660208E-1,1.204873620E0
1.574192084E-1,4.131987566E-1,3.773521087E-1,9.945973492E-1,1.141206254E0
1.673532084E-1,4.028157096E-1,3.466989577E-2,7.102975380E-1,8.173035483E-1
1.772882083E-1,1.560259330E-1,-2.103182074E-1,2.787046105E-1,3.824318241E-1
1.872222084E-1,-3.076774178E-1,-2.959199828E-1,2.403632480E-1,4.899066448E-1
1.971572083E-1,-8.867435561E-1,-9.220474362E-2,9.903101707E-1,1.332490181E0
2.070912084E-1,-9.049836530E-1,6.674713612E-2,1.758181733E0,1.978548356E0
2.170262084E-1,-5.159843293E-1,-4.256305218E-2,1.887837308E0,1.957544672E0
2.269602083E-1,-2.492988168E-1,-6.817894381E-1,1.034505765E0,1.263799397E0
2.368952084E-1,-3.175254446E-1,-1.370306683E0,1.080939674E-1,1.410761184E0
2.468292083E-1,-6.436578445E-1,-1.706010536E0,-3.996039802E-1,1.866668345E0
2.567642084E-1,-7.354816420E-1,-1.614309238E0,-2.121469241E-1,1.786598410E0
2.666992084E-1,-7.025599176E-1,-1.497613431E0,8.609405243E-1,1.864847182E0
2.766332083E-1,-1.232550375E0,-1.660701631E0,2.389158282E0,3.159934751E0
2.865682084E-1,-1.389515663E0,-1.902871084E0,3.722612303E0,4.405623055E0
2.965022083E-1,-1.452160100E0,-2.040132133E0,4.686209469E0,5.313329208E0
3.064372084E-1,-1.290112705E0,-2.244127454E0,4.461447178E0,5.158004434E0
3.163712083E-1,-7.343344914E-1,-2.626303223E0,3.408261312E0,4.364969752E0
3.263062083E-1,-6.733960524E-1,-2.633889985E0,2.649038367E0,3.795819143E0
3.362402084E-1,1.457050127E0,3.555297736E0,1.085782338E0,3.992750975E0
3.461752083E-1,-4.453296159E0,-2.295573596E0,5.706549186E-1,5.042534268E0
3.561092084E-1,-3.596884888E0,-2.648298694E0,8.359021622E-1,4.544205023E0
3.660442083E-1,1.248193431E0,2.081130470E0,2.867725986E-1,2.443630373E0
3.759782084E-1,-6.911420596E-1,5.079745209E-1,-1.541869837E-1,8.714867104E-1
3.859132084E-1,-1.282328599E0,8.903403246E-1,-7.320994663E-1,1.724251187E0
3.958472083E-1,-1.605981816E-1,1.155134409E0,-1.076515963E0,1.587140163E0
4.057822084E-1,-1.118563583E-1,-3.843480098E-1,-8.936931181E-1,9.792459481E-1
4.157172084E-1,-4.470100253E-1,-2.108334641E0,-7.163333264E-1,2.271128872E0
4.256512084E-1,-3.058484965E0,-3.722528688E0,-2.645209318E0,5.496242576E0
4.355862084E-1,1.709333362E-1,-3.240020546E0,-2.930202608E0,4.371846140E0
4.455202083E-1,2.864667600E0,-2.064558876E0,1.327990383E-2,3.531132986E0
4.554552084E-1,1.053926488E0,-1.808390604E0,5.760998458E-2,2.093885510E0
4.653892083E-1,-6.301207363E-1,-1.303244966E0,-1.011073341E0,1.765720500E0
4.753242083E-1,-2.130177207E0,-6.530065191E-1,-1.482675257E0,2.676265750E0
4.852582084E-1,-1.203193844E0,6.383627522E-1,-1.941541060E0,2.371658516E0
4.951932083E-1,-1.408054114E-1,1.068766356E0,-2.071204383E0,2.334946527E0
5.051272084E-1,-3.320370644E-2,4.669586420E-1,-1.614584057E0,1.681081359E0
5.150622083E-1,-4.575402394E-1,-2.476377690E-1,-8.453840071E-1,9.926437703E-1
5.249972083E-1,-7.421581391E-1,-1.277296193E0,6.786103070E-2,1.478813506E0
5.349312084E-1,-3.639368418E-1,-2.813454469E0,5.680336118E-2,2.837464132E0
5.448662083E-1,-1.988192193E-1,-4.122726161E0,-5.066858677E-1,4.158501010E0
5.548002084E-1,-8.539251812E-1,-4.557275441E0,-1.328327913E0,4.823111309E0
5.647352083E-1,-1.759785186E0,-4.924137937E0,-1.879127296E0,5.556536485E0
5.746692084E-1,-1.863297275E0,-3.145372835E0,-1.464589380E0,3.938307893E0
5.846042084E-1,-1.891026818E0,-1.620418993E0,-2.903290214E-1,2.507195860E0
5.945382083E-1,-1.352085297E0,-1.168685331E0,-1.345467710E-1,1.792222890E0
6.044732084E-1,-3.092744971E0,-1.203404928E0,-5.894430457E-1,3.370563452E0
6.144072083E-1,-5.952165572E0,-3.198417606E0,3.629805297E-3,6.757082459E0
6.243422084E-1,-6.507323615E0,-5.503155543E0,1.320436804E0,8.624009214E0
6.342762084E-1,-5.738658586E0,-7.483347284E0,2.889961778E0,9.863293973E0
6.442112083E-1,-4.121801131E0,-8.524925841E0,3.635042063E0,1.014283668E1
6.541462084E-1,-2.296067393E0,-8.405951959E0,4.071296391E0,9.618077153E0
6.640802083E-1,-1.012598003E0,-7.878213850E0,4.862960566E0,9.313430820E0
6.740152084E-1,6.071435907E-1,-5.097687390E0,7.515317520E0,9.101375583E0
6.839492084E-1,1.544420393E0,-2.888102363E0,1.080415530E1,1.128964753E1
6.938842083E-1,7.186818606E-1,-3.745010063E0,1.003352853E1,1.073374579E1
7.038182084E-1,-6.198136300E-2,-2.398745962E0,8.800174162E0,9.121452141E0
7.137532083E-1,9.911743891E-1,-2.494188893E0,6.128608228E0,6.690533889E0
7.236872084E-1,1.304062699E0,-2.263467119E0,3.928728994E0,4.717920562E0
7.336222084E-1,1.245583526E0,-2.273892120E0,2.784969174E0,3.805012088E0
7.435562083E-1,1.443226140E0,-2.049471890E0,3.113575677E0,3.997197795E0
7.534912084E-1,1.704197022E0,-1.731364063E0,2.996682819E0,3.857721728E0
7.634262083E-1,1.074462129E0,-1.136834378E0,2.283461673E0,2.767861717E0
7.733602084E-1,2.484633958E-1,3.565632105E-1,1.047092482E0,1.133699276E0
7.832952084E-1,4.729502839E-1,2.984027106E0,-1.335683857E0,3.303354523E0
7.932292083E-1,1.302014712E0,6.121662905E0,-3.741694692E0,7.291795266E0
8.031642084E-1,1.817621604E0,9.794123640E0,-3.901968627E0,1.069831600E1
8.130982083E-1,1.153854161E0,1.003899801E1,-4.491364749E0,1.105826469E1
8.230332084E-1,1.957725276E0,8.882932144E0,-2.888126337E0,9.543607571E0
8.329672083E-1,1.212466651E0,6.741745507E0,-1.035213863E0,6.927689052E0
8.429022083E-1,1.027994014E0,5.110022677E0,1.160814394E0,5.340093024E0
8.528362084E-1,7.911338326E-1,3.745173200E0,3.223338732E0,5.004210989E0
8.627712083E-1,2.136477582E-1,2.889267713E0,4.916913117E0,5.706973619E0
8.727052084E-1,3.252678891E-1,2.409280890E0,6.015390930E0,6.488093838E0
8.826402084E-1,6.806748857E-1,1.945967402E0,5.912744229E0,6.261840923E0
8.925752083E-1,1.079662935E0,1.484535549E0,5.030595853E0,5.355036180E0
9.025092084E-1,1.349083629E0,8.563510448E-1,3.065751885E0,3.457195159E0
9.124442083E-1,2.682649039E0,6.057095611E-1,9.631615484E-1,2.913961240E0
9.223782084E-1,3.723974120E0,1.289021614E0,-5.679453919E-1,3.981472333E0
9.323132084E-1,3.219405895E0,2.623479602E0,-2.572474925E0,4.885165993E0
9.422472083E-1,1.610406806E0,3.914653577E0,-4.682719266E0,6.312351577E0
9.521822084E-1,8.198020001E-1,3.676182488E0,-4.944097992E0,6.215343752E0
9.621162083E-1,1.592091718E0,3.184460887E0,-4.357108877E0,5.626717066E0
9.720512084E-1,2.310525219E0,3.584147313E0,-4.286016090E0,6.046037766E0
9.819852083E-1,2.404149228E0,4.177664260E0,-3.458315817E0,5.932348647E0
9.919202083E-1,1.146627734E0,2.252145740E0,-2.149130080E0,3.317480323E0
1.001855208E0,3.837581427E0,-2.246147082E0,-1.483420046E0,4.687509249E0
1.011789208E0,5.280120519E0,-6.775905526E-1,2.103949668E0,5.724107429E0
1.021724208E0,3.161728667E0,4.888448871E0,4.259592522E0,7.213708408E0
1.031658208E0,1.950320655E0,4.954537611E0,5.986684610E0,8.011965190E0
1.041593208E0,1.757293541E0,4.074794780E0,5.515767403E0,7.079245943E0
1.051527208E0,1.667430753E0,4.492685342E0,4.402284465E0,6.507277112E0
1.061462208E0,1.672213045E0,3.463566032E0,4.073598440E0,5.602391487E0
1.071396208E0,1.879764788E0,2.066858586E0,3.309037279E0,4.330721393E0
1.081331208E0,3.038285758E0,2.070042980E0,1.930680734E0,4.152563833E0
1.091265208E0,4.364648277E0,2.072562545E0,6.425951131E-1,4.874279286E0
1.101200208E0,5.037846401E0,8.414453226E-1,9.933366895E-2,5.108599981E0
1.111134208E0,4.725466506E0,-1.979608188E0,1.279054158E0,5.280611879E0
1.121069208E0,2.740725632E0,-8.086619141E0,6.173692015E-1,8.560731910E0
1.131004208E0,1.756993725E0,-8.362705368E0,-5.886067477E-1,8.565531269E0
1.140938208E0,1.506557625E0,-6.089036611E0,-3.861910522E-1,6.284522755E0
1.150873208E0,8.239409517E-1,-4.378877476E0,-3.244967875E-1,4.467521103E0
1.160807208E0,4.923988540E-1,-4.010100601E0,2.939085406E-1,4.050894431E0
1.170742208E0,1.288711712E-1,-5.082613268E0,2.903405696E-2,5.084329690E0
1.180676208E0,-6.778194711E-2,-5.592935447E0,-6.535432935E-2,5.593727960E0
1.190611208E0,4.742664921E-1,-5.112276193E0,-3.473155466E-1,5.145961977E0
1.200545208E0,1.171834496E0,-4.401632500E0,-6.367954060E-1,4.599247019E0
1.210480208E0,1.945808066E0,-4.080220411E0,-1.336894523E0,4.713985002E0
1.220414208E0,-7.737417282E-1,-4.910588769E0,-8.905587181E-1,5.050312183E0
1.230349208E0,-1.955065085E0,-5.132891722E0,-1.130805899E0,5.607814092E0
1.240283208E0,-2.522010823E-1,-4.901853029E0,-1.991251456E0,5.296871800E0
1.250218208E0,-3.040800646E-2,-4.716761171E0,-1.573057424E0,4.972250019E0
1.260153208E0,4.221461660E-1,-3.234959196E0,-6.826182809E-1,3.333037069E0
1.270087208E0,1.493222757E0,-2.311072810E0,-4.739080578E-2,2.751911631E0
1.280022208E0,1.899600736E0,-6.781998324E-1,1.187721527E-1,2.020530820E0
1.289956208E0,2.090031979E0,1.416629494E0,5.608938691E-1,2.586440552E0
1.299891208E0,2.162033569E0,1.654187248E0,2.032142497E0,3.397105788E0
1.309825208E0,5.113387164E-1,6.755147910E-1,2.856407531E0,2.979404554E0
1.319760208E0,-9.708048825E-1,-1.187475944E-1,2.538543825E0,2.720435234E0
1.329694208E0,-1.672861793E0,-8.149591899E-1,1.766918935E0,2.566052919E0
1.339629208E0,-1.526292562E0,-1.139592510E0,9.929124740E-1,2.148049174E0
1.349564208E0,7.456632525E-2,6.399385768E-1,5.611888611E-1,8.544088347E-1
1.359498208E0,1.531436650E0,1.939824318E0,-5.066624057E-1,2.522879979E0
1.369433208E0,1.926491789E0,7.175556868E-1,-1.594983020E0,2.601966105E0
1.379367208E0,1.574753993E0,-1.302963130E0,-3.111494068E0,3.722762199E0
1.389302208E0,2.112506629E0,-2.044563153E0,-4.199068578E0,5.125924274E0
1.399236208E0,1.578345061E0,-3.620483081E0,-4.660838401E0,6.109213163E0
1.409171208E0,-6.556775272E-3,-5.171712556E0,-4.742561426E0,7.017018072E0
1.419105208E0,-7.115719387E-1,-4.304694436E0,-3.709243230E0,5.726710587E0
1.429040208E0,3.986976325E0,8.455670249E-1,-3.393708470E0,5.303604528E0
1.438974208E0,6.773639145E0,4.387715542E0,-2.345105652E0,8.404389060E0
1.448909208E0,1.946800923E0,3.970417303E-1,-1.790053444E0,2.674316230E0
1.458843208E0,-2.144083348E0,-1.781769986E0,-1.890226480E0,3.368197416E0
1.468778208E0,-5.507066161E0,1.471114435E0,8.035699832E-1,5.756533688E0
1.478713208E0,-8.246251636E0,3.444060890E0,2.594857774E0,9.305670762E0
1.488647208E0,-6.159734126E0,3.988727274E0,8.415349312E-1,7.386504641E0
1.498582208E0,-4.166287333E0,3.789626657E0,1.114628992E0,5.741220962E0
1.508516208E0,-3.874578807E0,2.701056367E0,6.686501598E-1,4.770236835E0
1.518451208E0,-3.490299794E0,1.011581756E0,-5.033553667E-1,3.668631479E0
1.528385208E0,-2.681841831E0,-6.677040803E-1,-9.332998180E-1,2.917045234E0
1.538320208E0,-1.487203926E0,-1.428606346E0,-1.533888388E-1,2.067902257E0
1.548254208E0,3.769106439E-1,6.383206522E-1,2.363498361E0,2.477022283E0
1.558189208E0,1.630576192E0,2.753649732E0,6.235639172E0,7.008891599E0
1.568123208E0,5.664742763E0,1.547648640E0,1.008936944E1,1.167389834E1
1.578058208E0,8.048046813E0,-4.597459261E0,1.238565289E1,1.546971514E1
1.587993208E0,2.522115195E0,-1.557968391E0,9.550037470E0,9.999577303E0
1.597927208E0,2.167118454E0,5.753543258E-1,5.940568789E0,6.349629323E0
1.607862208E0,3.886165357E0,1.208946335E0,2.955268160E0,5.029656283E0
1.617796208E0,2.231901072E0,2.605351480E0,4.595491965E-1,3.461274937E0
1.627731208E0,5.072732936E-1,3.431718003E0,-1.666997328E0,3.848752361E0
1.637665208E0,3.183651048E-1,2.325225996E0,-2.525486992E0,3.447624808E0
1.647600208E0,8.873912814E-1,1.529005963E-1,-2.818961377E0,2.959287942E0
1.657534208E0,1.042280954E0,-1.864955399E0,-2.715314802E0,3.455045977E0
1.667469208E0,1.427610273E0,-3.325108643E0,-1.976415024E0,4.123182621E0
1.677403208E0,1.561749055E0,-3.529471169E0,-1.757621570E0,4.240926836E0
1.687338208E0,1.252311479E0,-2.198715638E0,-2.374366288E0,3.469906305E0
1.697273208E0,8.234250811E-1,-4.221251160E-1,-2.186792288E0,2.374506052E0
1.707207208E0,-2.588356986E-1,8.291106212E-1,-1.709535238E0,1.917532547E0
1.717142208E0,-1.752939850E0,1.926874489E0,-1.835451811E0,3.186616821E0
1.727076208E0,-3.407549414E0,2.999675424E0,-2.329068201E0,5.102352824E0
1.737011208E0,-2.947031772E0,2.832771916E0,-2.459278092E0,4.770497011E0
1.746945208E0,-1.970783132E0,1.846215658E0,-2.195857519E0,3.480558669E0
1.756880208E0,-1.475366676E0,1.057822707E0,-1.494680760E0,2.351545510E0
1.766814208E0,-1.049702021E0,1.559551817E-1,9.280408323E-3,1.061264565E0
1.776749208E0,-1.421992268E0,-8.863267958E-1,1.214481017E0,2.069444694E0
1.786683208E0,-1.246256833E0,-1.045807264E0,1.812742395E0,2.435755307E0
1.796618208E0,-1.342534309E0,-1.395572501E0,1.824115229E0,2.660341584E0
1.806553208E0,-1.301691800E0,-1.137258301E0,1.570417698E0,2.335373574E0
1.816487208E0,-1.161041924E0,-5.550358361E-1,1.234349271E0,1.783171683E0
1.826422083E0,-1.079131715E0,-4.003816599E-1,1.241327923E0,1.692845458E0
1.836356083E0,-1.128758862E0,-2.884028023E-1,1.090179445E0,1.595545037E0
1.846291083E0,-1.711790655E0,4.088607073E-2,7.075888154E-1,1.852722550E0
1.856225083E0,-1.857063997E0,2.611278802E-1,3.691923192E-1,1.911328707E0
1.866160083E0,-1.528305466E0,-1.755948097E-1,2.841638634E-1,1.564384939E0
1.876094083E0,-1.706090935E0,-8.576497114E-1,3.365607628E-1,1.938964273E0
1.886029083E0,-1.712515856E0,-1.257733748E0,1.974560872E-1,2.133915097E0
1.895963083E0,-2.002252408E0,-1.205964255E0,-7.522852242E-2,2.338594411E0
1.905898083E0,-1.043188223E0,-7.998628485E-1,-5.165880543E-1,1.412404143E0
1.915833083E0,3.620595201E-1,-3.305664897E-1,-1.009182059E0,1.121966902E0
1.925767083E0,2.233686081E0,6.672778183E-1,-2.064988354E0,3.114288056E0
1.935702083E0,3.886342236E0,1.632326263E0,-3.026836910E0,5.189401380E0
1.945636083E0,5.249761190E0,1.862659197E0,-2.758626882E0,6.216069025E0
1.955571083E0,4.318506728E0,4.506150895E-1,-1.175938510E0,4.498375896E0
1.965505083E0,2.830492671E0,-1.540570586E0,-4.846552402E-2,3.222948246E0
1.975440083E0,1.938005834E0,-2.826229466E0,4.289654812E-1,3.453614193E0
1.985374083E0,1.372957810E0,-3.414757569E0,5.753566647E-1,3.725133245E0
1.995309083E0,1.017230313E0,-3.659995056E0,6.459983388E-1,3.853262925E0
2.005244083E0,5.336923661E-1,-3.762051188E0,9.408354172E-1,3.914463944E0
2.015178083E0,1.579853350E-1,-3.118254619E0,1.098494185E0,3.309858110E0
2.025113083E0,3.534374717E-1,-1.889882079E0,1.084454728E0,2.207399913E0
2.035047083E0,3.160762853E-1,-1.519726431E0,1.081648065E0,1.891939529E0
2.044982083E0,-3.777962778E-1,-1.524262117E0,6.937543032E-1,1.716799365E0
2.054916083E0,-1.752008681E0,-1.333645810E0,2.428781354E-1,2.215205488E0
2.064851083E0,-2.972949263E0,-1.482425289E0,-9.089759856E-2,3.323292709E0
2.074785083E0,-3.142681947E0,-1.438443702E0,-3.139165431E-1,3.470463038E0
2.084720083E0,-2.480381278E0,-1.230704994E0,-3.457040539E-1,2.790418850E0
2.094654083E0,-2.269643826E0,-4.690700716E-1,-5.630991465E-1,2.385034691E0
2.104589083E0,-2.557148203E0,7.519858468E-1,-1.190179696E0,2.919078169E0
2.114524083E0,-2.698899621E0,2.085120610E0,-2.313946132E0,4.121423762E0
2.124458083E0,-2.162143789E0,3.002881452E0,-3.376309202E0,5.009154281E0
2.134393083E0,-1.873964058E0,3.226383085E0,-3.965216205E0,5.444651380E0
2.144327083E0,-1.541480120E0,2.705300276E0,-3.740691310E0,4.866989009E0
2.154262083E0,-9.526967134E-1,2.108904160E0,-3.154481336E0,3.912270476E0
2.164196083E0,-4.357323908E-1,1.311058601E0,-2.431117317E0,2.796259784E0
2.174131083E0,3.142531235E-2,5.433513451E-1,-1.504858424E0,1.600255327E0
2.184065083E0,3.243129291E-1,-1.916717291E-2,-8.119779870E-1,8.745596080E-1
2.194000083E0,7.422380997E-1,-5.967703378E-1,-1.152828267E-1,9.593447571E-1
2.203934083E0,1.154352783E0,-9.174790066E-1,1.914159134E-1,1.486922367E0
2.213869083E0,1.347480907E0,-1.027144121E0,2.143077627E-1,1.707822490E0
2.223804083E0,1.440874974E0,-1.128520807E0,2.732327861E-1,1.850496165E0
2.233738083E0,1.402819102E0,-1.144680757E0,4.140068418E-1,1.857309111E0
2.243673083E0,1.359479978E0,-1.053246092E0,4.267593268E-1,1.771901990E0
2.253607083E0,1.246716717E0,-8.775138724E-1,5.380432427E-1,1.616732414E0
2.263542083E0,6.402955493E-1,-6.905444741E-1,8.943798736E-1,1.298747635E0
2.273476083E0,-2.485749315E-1,-9.422460580E-1,1.376239268E0,1.686313035E0
2.283411083E0,-4.953381763E-1,-8.891568482E-1,1.382358086E0,1.716646058E0
2.293345083E0,-9.031338863E-1,-6.239446878E-1,8.854795343E-1,1.410330385E0
2.303280083E0,-2.446272715E0,-4.400491709E-1,-9.528622627E-3,2.485555122E0
2.313214083E0,-3.379156504E0,-3.111525643E-1,-4.314382687E-1,3.420767980E0
2.323149083E0,-4.049272853E0,-1.216372883E-1,-4.448599675E-1,4.075451712E0
2.333084083E0,-3.957466890E0,-2.093753439E-1,-2.515109646E-1,3.970974689E0
2.343018083E0,-2.770956321E0,-4.138045281E-1,4.386873543E-1,2.835820819E0
2.352953083E0,-1.813564659E0,-6.596647435E-1,6.509342659E-1,2.036636876E0
2.362887083E0,-1.764745598E-1,-9.575224936E-1,-1.159687051E-1,9.805311502E-1
2.372822083E0,8.488034588E-1,-1.042478444E0,-2.185851471E-1,1.361986815E0
2.382756083E0,1.600609942E0,-1.137678131E0,2.079083067E0,2.859868899E0
2.392691083E0,1.839025483E0,-1.353130487E0,3.131992652E0,3.875868265E0
2.402625083E0,1.446748502E0,-1.660609245E0,2.626002384E0,3.427330275E0
2.412560083E0,1.012425510E0,-1.393282732E0,6.836918297E-1,1.853018268E0
2.422495083E0,1.330463024E0,1.192761827E-1,-2.451763543E0,2.792042825E0
2.432429083E0,1.589676818E0,1.200951437E0,-4.342046742E0,4.777313748E0
2.442364083E0,1.260988162E0,1.535418019E0,-4.385676911E0,4.814744189E0
2.452298083E0,2.226609122E-1,1.475295194E0,-2.868826140E0,3.233610553E0
2.462233083E0,-5.832050533E-1,1.659331044E0,-3.921370858E-1,1.802020849E0
2.472167083E0,-1.097628505E0,2.122392517E0,1.975309900E0,3.100191531E0
2.482102083E0,-1.171358825E0,2.388022753E0,2.848881580E0,3.897545435E0
2.492036083E0,-9.375538867E-1,2.327291232E0,2.245891851E0,3.367390975E0
2.501971083E0,-1.015301024E0,2.291853012E0,6.548776281E-1,2.590808968E0
2.511905083E0,-1.434420671E0,2.189727883E0,-3.077529931E-1,2.635750893E0
2.521840083E0,-1.578946301E0,2.018871072E0,-4.598776639E-1,2.603919986E0
2.531775083E0,-1.511245630E0,1.931401404E0,-5.084791356E-1,2.504541029E0
2.541709083E0,-1.178551631E0,1.810425435E0,-7.985156500E-1,2.303096057E0
2.551644083E0,-5.722043576E-1,1.298749627E0,-1.012163262E0,1.743170356E0
2.561578083E0,-2.379262016E-1,-6.466500109E-1,-1.116976649E0,1.312403120E0
2.571513083E0,-5.007314287E-1,-1.666976278E0,-7.676704180E-1,1.902330084E0
2.581447083E0,-5.957624240E-1,-2.302742282E0,9.611126840E-2,2.380502523E0
2.591382083E0,4.488569049E-1,-2.007254409E0,1.766107634E-1,2.064396799E0
2.601316083E0,7.342878599E-1,-1.272026682E0,-1.337971580E-1,1.474832947E0
2.611251083E0,9.233662026E-1,-2.966175556E-1,-3.944169152E-1,1.046972694E0
2.621185083E0,6.315716498E-1,-4.530890465E-1,-8.426488258E-1,1.146398481E0
2.631120083E0,1.700589582E-3,-9.526377296E-1,-9.403394271E-1,1.338566313E0
2.641055083E0,-2.536380355E-1,-1.276908522E0,-8.152673382E-1,1.536062648E0
2.650989083E0,-9.455759742E-1,-1.300887369E0,5.979261862E-1,1.715790661E0
2.660924083E0,-1.613662828E0,-1.851494524E0,1.308829934E0,2.782979607E0
2.670858083E0,-1.311635282E0,-2.536660144E0,-1.274881293E0,3.127355770E0
2.680793083E0,-5.344525407E-1,-2.579167063E0,1.595387063E0,3.079448350E0
2.690727083E0,-1.748621243E0,-3.834709275E0,4.622530367E0,6.255434315E0
2.700662083E0,-1.052616273E0,-4.571068438E0,3.770705945E0,6.018379433E0
2.710596083E0,8.139632629E-1,8.686424768E-1,1.674153736E0,2.054231408E0
2.720531083E0,2.260248812E0,4.420122566E0,-1.905780659E0,5.317725840E0
2.730466083E0,2.790548879E0,5.432184963E0,-5.071281949E0,7.938116724E0
2.740400083E0,3.059341582E0,3.408415679E0,-4.376170507E0,6.334645741E0
2.750335083E0,2.412884529E0,-5.856600434E-1,-8.409395385E-1,2.621485980E0
2.760269083E0,2.139316259E0,-2.866483453E0,1.335066976E0,3.817827297E0
2.770204083E0,2.203202791E0,-1.832051947E0,1.070364108E0,3.058789989E0
2.780138083E0,6.931249966E-1,7.072178096E-1,-1.066496759E0,1.455333168E0
2.790073083E0,1.911929883E-1,2.221205199E0,-2.405732800E0,3.279917316E0
2.800007083E0,5.802768043E-1,2.071821118E0,-2.013657110E0,2.946859153E0
2.809942083E0,4.870200004E-1,1.369562332E0,-4.803815103E-1,1.530900342E0
2.819877083E0,2.854294201E-1,7.379344028E-1,6.951681599E-1,1.053221680E0
2.829812333E0,3.565079543E-1,1.122598747E0,1.197721435E0,1.679840023E0
2.839747333E0,1.370206549E-1,6.504419303E-1,1.400549944E0,1.550286912E0
2.849681333E0,2.338690379E-1,-3.923347217E-1,2.064332589E0,2.114258806E0
2.859616333E0,-3.599951606E-1,1.850421560E-1,1.609101415E0,1.659230086E0
2.869550333E0,-1.652014131E0,1.203143558E0,1.303024526E0,2.423752880E0
2.879485333E0,-3.299472696E0,1.321611655E0,1.244211477E0,3.765798672E0
2.889419333E0,-4.780016350E0,1.201988733E0,1.013836150E0,5.032017186E0
2.899354333E0,-5.287735348E0,1.080561360E0,5.388913813E-1,5.423851204E0
2.909288333E0,-3.160819425E0,1.445439311E0,2.561621323E-1,3.485067184E0
2.919223333E0,-6.854223132E-1,1.922206072E0,3.157449675E-1,2.065036275E0
2.929158333E0,-1.284285370E-1,2.152583445E0,1.649756813E-1,2.162712730E0
2.939092333E0,1.002920276E-1,2.198299316E0,5.423888934E-1,2.266443047E0
2.949027333E0,2.218594417E-2,2.172934095E0,3.596938097E-1,2.202615362E0
2.958961333E0,-1.373942920E-1,1.998791733E0,3.579747283E-1,2.035237453E0
2.968896333E0,-1.531077339E-1,1.884753487E0,4.552115858E-1,1.944982075E0
2.978830333E0,2.111948512E-2,2.133706879E0,8.221074110E-1,2.286703232E0
2.988765333E0,2.632137282E-1,2.461715212E0,9.932510278E-1,2.667558969E0
2.998699333E0,3.508975509E-1,2.810188215E0,9.791431582E-1,2.996499327E0
3.008634333E0,6.755574757E-1,2.681612620E0,6.428007889E-1,2.839122576E0
3.018569333E0,1.071314280E0,2.107768046E0,4.598764944E-1,2.408710612E0
3.028503333E0,1.850395686E0,7.175024772E-1,-1.625523028E-1,1.991280304E0
3.038438333E0,1.836033609E0,-3.082438084E0,-2.902796416E0,4.615048319E0
3.048372333E0,1.568491333E0,-5.752443981E0,-2.455524472E0,6.448284830E0
3.058307333E0,2.029717657E-1,-6.147491811E0,-3.834030998E-1,6.162779490E0
3.068241333E0,-1.514955103E0,-4.392618433E0,1.902621116E0,5.020971297E0
3.078176333E0,-1.260644492E0,-2.930765988E0,2.263592834E0,3.911836695E0
3.088110333E0,-5.781772519E-1,-2.035133348E0,1.506640070E0,2.597310336E0
3.098045333E0,-6.155824386E-1,-1.558543172E0,7.583414778E-1,1.839315187E0
3.107980333E0,-1.050645104E0,-1.659640946E0,8.819048390E-1,2.153141739E0
3.117914333E0,8.519923110E-2,-8.961243904E-1,-8.380051133E-1,1.229857879E0
3.127849333E0,-4.714125027E-1,-5.613063902E-1,-2.681921938E-1,7.805265301E-1
3.137783333E0,-2.442046202E0,-1.353293039E0,4.675181328E0,5.445393664E0
3.147718333E0,-7.785235081E-1,-1.326636752E0,5.156764149E0,5.381289847E0
3.157652333E0,-2.799258015E-1,-9.406854361E-1,2.657799250E0,2.833221558E0
3.167587333E0,7.041857359E-1,-1.103525130E0,1.575366197E0,2.048273399E0
3.177521333E0,1.462081363E0,-1.902082880E0,1.549194644E0,2.855802031E0
3.187456333E0,2.041232286E0,-2.842734987E0,1.794665727E0,3.933013669E0
3.197390333E0,3.023954818E0,-3.330351257E0,1.676255517E0,4.800559841E0
3.207325333E0,3.553307636E0,-4.343719338E0,1.819464938E0,5.899520786E0
3.217260333E0,3.206309009E0,-5.213895539E0,2.314262466E0,6.543770695E0
3.227194333E0,3.059007121E0,-5.705028325E0,2.389732479E0,6.900412602E0
3.237129333E0,2.840701910E0,-6.302466999E0,1.329498965E0,7.039761723E0
3.247063333E0,1.900674285E0,-7.068482655E0,5.117763805E-1,7.337433124E0
3.256998333E0,1.547950503E0,-6.920066289E0,-2.286670625E-1,7.094769681E0
3.266932333E0,7.154954204E-1,-5.518151897E0,-1.222194956E0,5.696989957E0
3.276867333E0,5.435862570E-1,-4.379873257E0,-2.804238380E0,5.229008382E0
3.286801333E0,3.881082080E-1,-2.724428272E0,-4.690711825E0,5.438374281E0
3.296736333E0,-3.368120469E-1,1.772712064E-1,-6.729864550E0,6.740618984E0
3.306671333E0,-1.067742801E0,4.237722766E0,-8.803312948E0,9.828361399E0
3.316605333E0,-1.998829009E0,9.143730826E0,-1.021774974E1,1.385660638E1
3.326540333E0,-2.119390849E0,1.497123318E1,-1.027538223E1,1.828149667E1
3.336474333E0,-3.240605852E-1,2.052152605E1,-9.003826836E0,2.241220525E1
3.346409333E0,2.011707356E0,2.427081920E1,-5.900493727E0,2.505864037E1
3.356343333E0,4.303459504E0,2.625581326E1,-1.662009653E0,2.665801511E1
3.366278333E0,5.253011073E0,2.494508736E1,-5.464918846E-1,2.549804232E1
3.376212333E0,4.952550727E0,2.205858363E1,-2.976697621E0,2.280284191E1
3.386147333E0,4.461812629E0,1.875330932E1,-5.306832354E0,1.999392038E1
3.396082333E0,2.421313437E0,1.562468759E1,-4.658537521E0,1.648319122E1
3.406016333E0,9.240375361E-1,1.275497823E1,-2.456191932E0,1.302214244E1
3.415951333E0,4.192795685E-1,9.179883576E0,-4.935526559E-1,9.202698085E0
3.425885333E0,-7.535613790E-1,5.103404798E0,3.423044828E-1,5.170083911E0
3.435820333E0,-2.727492213E0,2.329306768E0,5.908760521E-1,3.635109118E0
3.445754333E0,-2.670419295E0,-6.824940276E-1,-2.909247065E-1,2.771565351E0
3.455689333E0,-1.533626432E0,-3.870419975E0,-8.968327805E-1,4.258693444E0
3.465623333E0,-5.121946026E-1,-6.308328248E0,-6.696886253E-1,6.364419176E0
3.475558333E0,5.090166409E-1,-8.408876152E0,-1.955718219E-1,8.426538104E0
3.485493333E0,1.319684121E0,-1.002844496E1,1.679773495E-1,1.011629828E1
3.495427333E0,1.675215298E0,-1.155595871E1,6.337957844E-1,1.169393968E1
3.505362333E0,1.786945648E0,-1.316453359E1,9.890859099E-1,1.332202726E1
3.515296333E0,1.822196757E0,-1.467698374E1,1.364896839E0,1.485251481E1
3.525231333E0,2.035501430E0,-1.591675484E1,1.995255630E0,1.616995349E1
3.535165333E0,2.227422689E0,-1.665792217E1,2.779295913E0,1.703444360E1
3.545100333E0,2.026514845E0,-1.720870299E1,3.681474802E0,1.771438618E1
3.555034333E0,1.948380402E0,-1.790222136E1,4.521035860E0,1.856678435E1
3.564969333E0,2.291132928E0,-1.806513531E1,5.087974581E0,1.890729725E1
3.574904333E0,2.245666587E0,-1.652364905E1,5.425858276E0,1.753607523E1
3.584838333E0,8.612366858E-1,-1.295830463E1,5.257433907E0,1.401071015E1
3.594773333E0,1.061025958E0,-1.044054619E1,4.504019878E0,1.142002522E1
3.604707333E0,1.656804170E0,-8.884595677E0,4.057264827E0,9.906686544E0
3.614642333E0,1.120194445E0,-7.582319010E0,3.475246430E0,8.415683865E0
3.624576333E0,6.258440097E-1,-6.635676430E0,2.889482306E0,7.264502076E0
3.634511333E0,6.519105316E-1,-6.014738966E0,2.587759254E0,6.580164901E0
3.644445333E0,6.528834352E-1,-5.799748541E0,2.023065864E0,6.177065274E0
3.654380333E0,5.823991243E-1,-5.969163428E0,1.298331259E0,6.136429322E0
3.664315333E0,6.259136646E-1,-6.432354124E0,8.269000813E-1,6.515421033E0
3.674249333E0,3.926574149E-1,-7.185590106E0,1.069555438E0,7.275357988E0
3.684184333E0,3.857180855E-1,-7.912486719E0,1.888646270E0,8.143906266E0
3.694118333E0,4.901945999E-1,-8.470602284E0,2.604948606E0,8.875649331E0
3.704053333E0,5.250774805E-1,-8.997967342E0,3.028588736E0,9.508494748E0
3.713987333E0,5.632624300E-1,-9.290239246E0,3.492338134E0,9.940937353E0
3.723922333E0,8.439459575E-1,-8.769514872E0,3.518507640E0,9.486650193E0
3.733856333E0,1.025210301E0,-7.366381921E0,1.623609526E0,7.612538779E0
3.743791333E0,6.303082126E-1,-5.369544911E0,-1.220030609E0,5.542361923E0
3.753725333E0,1.832191038E-1,-2.779314331E0,-3.136955476E0,4.195074141E0
3.763660333E0,-2.661370254E-1,1.244018519E0,-4.312241437E0,4.495980116E0
3.773595333E0,-1.091039131E0,8.337876336E0,-6.605079120E0,1.069287699E1
3.783529333E0,-3.487698368E0,2.676161612E1,-8.147217929E0,2.819087259E1
3.793464333E0,-2.826323022E0,5.735450101E1,-2.491754698E0,5.747813262E1
3.803398333E0,-3.010177316E0,5.861792995E1,5.302384962E0,5.893418503E1
3.813333333E0,-1.890077084E0,2.549691951E1,-1.173411343E0,2.559379202E1
3.823267333E0,3.202083518E0,1.271039672E1,-7.549678683E0,1.512630728E1
3.833201500E0,4.199889235E0,1.162237256E1,-1.126323891E1,1.672062093E1
3.843135500E0,3.629885404E0,1.755437985E1,-1.255457310E1,2.188491777E1
3.853070500E0,3.533202570E0,2.108808616E1,-1.197686819E1,2.450788179E1
3.863005500E0,5.239340575E-1,1.879162964E1,-8.384460518E0,2.058395077E1
3.872939500E0,-3.686080070E0,1.501080245E1,-4.132393947E0,1.599962676E1
3.882874500E0,-4.748270355E0,1.151998547E1,-3.089896792E0,1.283758540E1
3.892808500E0,-4.835856675E0,8.110224935E0,-2.036849798E0,9.659710936E0
3.902743500E0,-4.787893134E0,5.179189975E0,8.790037429E-1,7.107782850E0
3.912677500E0,-2.954210399E0,1.931294984E0,3.507666317E0,4.976040835E0
3.922612500E0,-3.586104303E-1,-1.045024322E0,3.921361502E0,4.074034034E0
3.932546500E0,1.737026945E0,-3.369618818E0,3.393767234E0,5.088147957E0
3.942481500E0,2.351921166E0,-5.457545507E0,2.928482358E0,6.625129814E0
3.952416500E0,2.225010274E0,-7.480965128E0,2.337325201E0,8.147306246E0
3.962350500E0,2.505258257E0,-9.171850086E0,8.063076496E-1,9.541974899E0
3.972285500E0,3.102601622E0,-1.087912128E1,-3.208159652E-1,1.131743520E1
3.982219500E0,3.190127424E0,-1.282931271E1,-5.850487170E-1,1.323293088E1
3.992154500E0,3.137819402E0,-1.483237818E1,-3.687545089E-1,1.516513544E1
4.002088500E0,3.304274429E0,-1.648960890E1,4.197730735E-1,1.682265260E1
4.012023500E0,3.322109899E0,-1.779964716E1,1.542019233E0,1.817255284E1
4.021958500E0,2.826772673E0,-1.854662194E1,2.259221456E0,1.889634650E1
4.031892500E0,2.288156549E0,-1.835052738E1,2.974897263E0,1.873039053E1
4.041827500E0,2.001158979E0,-1.606410351E1,4.192378194E0,1.672232322E1
4.051761500E0,2.364439763E0,-1.278762908E1,5.295232648E0,1.404113677E1
4.061696500E0,2.360854543E0,-1.056205952E1,5.845634565E0,1.230049507E1
4.071630500E0,1.593000083E0,-8.895881388E0,5.865922650E0,1.077420083E1
4.081565500E0,8.602537689E-1,-7.486381989E0,5.067449684E0,9.081024068E0
4.091499500E0,7.485981162E-1,-6.643870718E0,4.024534453E0,7.803735953E0
4.101434500E0,4.832611909E-1,-6.222381195E0,3.219928928E0,7.022785161E0
4.111369500E0,1.160058349E-2,-6.160323526E0,2.794421782E0,6.764503944E0
4.121303500E0,-4.084976683E-1,-6.601481329E0,2.692349570E0,7.141090413E0
4.131238500E0,-4.964948286E-1,-6.949167296E0,2.464689690E0,7.390001928E0
4.141172500E0,-3.901643083E-1,-7.259963180E0,2.159360661E0,7.584334647E0
4.151107500E0,-2.164797840E-1,-7.874625998E0,2.011938321E0,8.130467017E0
4.161041500E0,1.427452252E-1,-8.575963263E0,2.301804681E0,8.880643382E0
4.170976500E0,6.241902709E-1,-9.438272620E0,3.014093488E0,9.927505382E0
4.180910500E0,9.492842053E-1,-1.050858323E1,3.436278246E0,1.109682252E1
4.190845500E0,9.153887732E-1,-1.131940493E1,1.857885823E0,1.150732828E1
4.200780500E0,1.004635776E0,-1.154139096E1,-1.119464932E0,1.163899481E1
4.210714500E0,1.639889637E0,-1.027162364E1,-3.657476660E0,1.102599772E1
4.220649500E0,1.814653557E0,-7.071548935E0,-4.768591183E0,8.720047806E0
4.230583500E0,1.815969765E0,-2.803890179E0,-5.077501633E0,6.077875381E0
4.240518500E0,9.580189222E-1,3.649851891E0,-6.263366668E0,7.312248703E0
4.250452500E0,-4.535541559E-1,1.731947849E1,-8.816859777E0,1.943983186E1
4.260387500E0,9.220790112E-1,4.715484724E1,-5.084284987E0,4.743711418E1
4.270321500E0,3.756107786E0,6.673843078E1,3.342610237E0,6.692756930E1
4.280256500E0,-6.028162126E-1,3.955764414E1,-1.542145533E0,3.959228221E1
4.290191500E0,1.129248493E0,1.682753587E1,-9.048154578E0,1.913923370E1
4.300125500E0,1.880226572E0,1.134866907E1,-1.168988451E1,1.640063845E1
4.310060500E0,-2.573497895E0,1.576381741E1,-1.137777417E1,1.961057306E1
4.319994500E0,-2.105982306E0,2.201553409E1,-9.108801314E0,2.391838548E1
4.329929500E0,-1.621962804E0,2.063767514E1,-5.049819160E0,2.130833339E1
4.339863500E0,-4.120006621E0,1.624872233E1,-1.443741279E0,1.682497610E1
4.349798500E0,-4.685070432E0,1.241103799E1,-1.032322123E0,1.330599255E1
4.359732500E0,-3.921613225E0,9.502567434E0,-7.166508302E-1,1.030492244E1
4.369667500E0,-2.755547446E0,6.225077931E0,4.891023400E-1,6.825236851E0
4.379602500E0,-9.108583505E-1,2.519913719E0,1.256342403E0,2.959395938E0
4.389536500E0,1.043342224E0,-9.564267254E-1,1.160164476E0,1.830108382E0
4.399471500E0,2.307254871E0,-3.489949254E0,1.051556539E0,4.313808293E0
4.409405500E0,2.596350861E0,-5.907707437E0,6.571755838E-1,6.486441606E0
4.419340500E0,3.366152004E0,-8.067398173E0,4.291789046E-1,8.752033314E0
4.429274500E0,4.669080928E0,-9.836866786E0,7.834450364E-2,1.088900375E1
4.439209500E0,5.273067607E0,-1.168906707E1,-2.086542360E-1,1.282509523E1
4.449143500E0,5.172494329E0,-1.377527175E1,7.107846111E-2,1.471454592E1
4.459078500E0,4.303719120E0,-1.594823625E1,4.353494713E-1,1.652445966E1
4.469013500E0,3.014588163E0,-1.792436242E1,9.163969794E-1,1.819918387E1
4.478947500E0,2.279119677E0,-1.940235260E1,1.492500626E0,1.959268310E1
4.488882500E0,2.125107671E0,-2.032993852E1,2.339059046E0,2.057410217E1
4.498816500E0,2.297212863E0,-2.055449031E1,3.977099209E0,2.106137643E1
4.508751500E0,2.365213642E0,-1.984222928E1,5.926034950E0,2.084289300E1
4.518685500E0,2.419311789E0,-1.830429462E1,7.053372281E0,1.976487621E1
4.528620500E0,1.949987363E0,-1.491463096E1,7.017606032E0,1.659805596E1
4.538555500E0,1.283519969E0,-1.172082798E1,5.694888668E0,1.309415858E1
4.548489500E0,1.872759970E0,-9.579133800E0,3.743818985E0,1.045386124E1
4.558424500E0,1.891478077E0,-7.745761551E0,2.273952054E0,8.291282728E0
4.568358500E0,1.755392465E0,-6.480110089E0,1.037363884E0,6.793331531E0
4.578293500E0,1.452855334E0,-5.713002173E0,2.405079666E-1,5.899748006E0
4.588227500E0,9.653340083E-1,-5.476054283E0,2.357304990E-2,5.560539178E0
4.598162500E0,5.103786036E-1,-5.539729292E0,2.728193879E-1,5.569875885E0
4.608096500E0,-2.877707183E-2,-5.745672905E0,9.338564730E-1,5.821140195E0
4.618031500E0,-7.898565084E-1,-5.973170525E0,1.719148060E0,6.265629216E0
4.627966500E0,-1.292205569E0,-6.000059531E0,2.442091664E0,6.605628002E0
4.637900500E0,-1.662754881E0,-5.644440061E0,2.843547165E0,6.535305492E0
4.647835500E0,-2.221875436E0,-4.872526903E0,2.597971416E0,5.952117636E0
4.657769500E0,-3.238778889E0,-4.102777215E0,1.131872431E0,5.348233799E0
4.667704500E0,-3.612605127E0,-2.768242629E0,-1.404871036E0,4.763165511E0
4.677638500E0,-3.144215671E0,-6.871665376E-1,-4.198156705E0,5.289878047E0
4.687573500E0,-2.607923962E0,2.817956241E0,-5.723818352E0,6.892332065E0
4.697507500E0,-1.452060113E0,1.254257812E1,-5.834231325E0,1.390909773E1
4.707442500E0,8.980505363E-1,3.031153559E1,-4.723434598E0,3.069049558E1
4.717377500E0,3.274706814E0,4.506654458E1,-3.597214963E0,4.532832558E1
4.727311500E0,3.640087918E0,3.832574339E1,-5.142201658E0,3.884012210E1
4.737246500E0,7.292204143E0,2.150903657E1,-7.741148683E0,2.399458852E1
4.747180500E0,6.122152317E0,1.408967771E1,-6.926759012E0,1.685169894E1
4.757115500E0,-6.053358144E-1,1.539403014E1,-5.073095171E0,1.621970684E1
4.767049500E0,-3.315519210E0,1.861504255E1,-6.576059389E0,2.001891690E1
4.776984500E0,-2.756796704E0,1.839001714E1,-8.112217666E0,2.028794553E1
4.786918500E0,-2.266790677E0,1.611265762E1,-7.740423628E0,1.801860798E1
4.796853500E0,3.040672921E-1,1.340145809E1,-7.084720373E0,1.516195233E1
4.806788500E0,1.887605320E0,1.113686070E1,-5.935790445E0,1.276034201E1
4.816722500E0,2.078976648E0,8.782091063E0,-3.946138786E0,9.849836479E0
4.826657500E0,1.553900922E0,6.136458700E0,-1.305224541E0,6.463307555E0
4.836591125E0,6.335073705E-1,3.339501565E0,1.480520558E0,3.707498268E0
4.846526125E0,1.701947598E-1,6.569680077E-1,3.385846596E0,3.453191334E0
4.856460125E0,2.407443220E-1,-1.682805276E0,3.843823622E0,4.202947949E0
4.866395125E0,6.657353228E-1,-3.846430603E0,3.428645291E0,5.195559685E0
4.876330125E0,9.399855244E-1,-5.876225443E0,2.765910759E0,6.562306041E0
4.886264125E0,1.694823643E0,-7.489775128E0,2.161663002E0,7.977590211E0
4.896199125E0,2.121803117E0,-9.099058099E0,1.377433269E0,9.444163762E0
4.906133125E0,2.042459617E0,-1.074225901E1,8.121412705E-1,1.096482300E1
4.916068125E0,1.811075207E0,-1.249416902E1,6.156980672E-1,1.263975226E1
4.926002125E0,1.864212510E0,-1.419420370E1,9.442950685E-1,1.434720880E1
4.935937125E0,2.329489201E0,-1.575268665E1,1.677739541E0,1.601213498E1
4.945871125E0,2.260219576E0,-1.723043943E1,2.399567203E0,1.754293471E1
4.955806125E0,1.997307564E0,-1.846447324E1,3.109332060E0,1.883066530E1
4.965741125E0,1.912725835E0,-1.908130889E1,3.997280289E0,1.958910714E1
4.975675125E0,2.139415077E0,-1.889941253E1,4.518273635E0,1.954941655E1
4.985610125E0,2.762440436E0,-1.825986513E1,4.668364060E0,1.904855309E1
4.995544125E0,2.383371293E0,-1.570907578E1,4.645297671E0,1.655398173E1
5.005479125E0,1.702678354E0,-1.300561328E1,3.662616363E0,1.361836440E1
5.015413125E0,1.573727807E0,-1.117197440E1,2.723790926E0,1.160640634E1
5.025348125E0,1.264880800E0,-9.477053109E0,2.115008653E0,9.792227564E0
5.035283125E0,1.030377120E0,-7.881113484E0,1.481989963E0,8.085166727E0
5.045217125E0,1.198641787E0,-6.643996434E0,8.004370451E-1,6.798538829E0
5.055152125E0,1.597234198E0,-6.001337147E0,7.400499254E-2,6.210690894E0
5.065086125E0,1.958049504E0,-5.787711462E0,-3.050036323E-1,6.117563980E0
5.075021125E0,2.380326063E0,-5.856719717E0,-2.530169150E-1,6.327016324E0
5.084955125E0,2.237471276E0,-5.541591046E0,-1.152953982E-1,5.977357448E0
5.094890125E0,1.687618996E0,-4.517951746E0,1.810906076E-1,4.826255242E0
5.104824125E0,8.471397067E-1,-3.195306888E0,2.359605870E-1,3.314107600E0
5.114759125E0,-2.659290290E-1,-1.481269294E0,-6.099961549E-1,1.623875697E0
5.124694125E0,-1.370689529E0,1.155082369E0,-2.265855122E0,2.889135597E0
5.134628125E0,-2.340528159E0,6.199927887E0,-3.632975365E0,7.557492168E0
5.144563125E0,-3.371165699E0,1.539758992E1,-5.470343893E0,1.668457958E1
5.154497125E0,-4.206519392E0,3.292991174E1,-4.962364694E0,3.356633665E1
5.164432125E0,-4.836043493E0,4.841043623E1,-1.568706803E0,4.867667299E1
5.174366125E0,-4.507602467E0,3.948819793E1,-1.557576628E0,3.977514677E1
5.184301125E0,9.792288199E-1,2.051854865E1,-5.314986881E0,2.121836028E1
5.194235125E0,2.461678959E0,1.492382512E1,-7.023778353E0,1.667674674E1
5.204170125E0,1.611965089E0,1.655112161E1,-8.237494261E0,1.855786544E1
5.214105125E0,1.653761133E0,1.914998209E1,-8.723133588E0,2.110805059E1
5.224039125E0,1.179201403E0,1.854725111E1,-6.630694603E0,1.973213497E1
5.233974125E0,-5.058901347E-1,1.527677826E1,-2.774794141E0,1.553497220E1
5.243908125E0,-1.812788734E0,1.153332414E1,-6.649269453E-1,1.169384011E1
5.253843125E0,-2.234853916E0,7.822689859E0,1.022833846E0,8.199709613E0
5.263777125E0,-1.875681093E0,3.960716187E0,2.666543469E0,5.129903152E0
5.273712125E0,-9.164695580E-1,6.260479313E-1,2.696643473E0,2.916117021E0
5.283647125E0,-4.090010405E-2,-2.217560629E0,1.745837091E0,2.822622028E0
5.293581125E0,6.529668311E-1,-4.837770469E0,7.024833190E-1,4.931923722E0
5.303516125E0,1.367496218E0,-7.383952219E0,-1.930294526E-1,7.511994186E0
5.313450125E0,2.207073356E0,-9.641624748E0,-5.921905062E-1,9.908722933E0
5.323385125E0,3.263004196E0,-1.153696813E1,-9.037093985E-1,1.202354027E1
5.333319125E0,4.140170159E0,-1.364278203E1,-1.232113442E0,1.431029748E1
5.343254125E0,4.909884764E0,-1.590141409E1,-9.072314689E-1,1.666688355E1
5.353189125E0,5.007535020E0,-1.811774037E1,5.400789508E-1,1.880477621E1
5.363123125E0,4.602583176E0,-1.987151447E1,1.637116595E0,2.046316227E1
5.373058125E0,3.801331029E0,-2.045955726E1,2.221266302E0,2.092791496E1
5.382992125E0,3.993773713E0,-2.027724341E1,2.930796686E0,2.087358134E1
5.392927125E0,4.679738941E0,-1.933964004E1,4.277495820E0,2.035236114E1
5.402861125E0,5.305240157E0,-1.811840345E1,5.829735401E0,1.975874316E1
5.412796125E0,4.715974721E0,-1.529746688E1,7.133503693E0,1.752540400E1
5.422730125E0,1.095236336E0,-1.119825997E1,6.498683769E0,1.299359303E1
5.432665125E0,1.139397213E-1,-8.428374862E0,5.085352689E0,9.844353562E0
5.442600125E0,1.263463069E-1,-6.562997294E0,4.056112634E0,7.716278026E0
5.452534125E0,-1.720986863E-1,-5.372324678E0,2.987310025E0,6.149431810E0
5.462469125E0,-5.790862381E-1,-4.807518729E0,1.614078565E0,5.104196980E0
5.472403125E0,-7.702274054E-1,-4.531813740E0,1.502664256E-1,4.599257117E0
5.482338125E0,-9.313602966E-1,-4.544791051E0,-9.624224603E-1,4.738018013E0
5.492272125E0,-1.082927728E0,-4.884236537E0,-1.243362461E0,5.155041147E0
5.502207125E0,-4.074369834E-1,-4.991471549E0,-7.516241965E-1,5.064161535E0
5.512142125E0,1.376070758E-1,-4.736973826E0,2.433678398E-1,4.745217028E0
5.522076125E0,2.510472439E-1,-4.381360788E0,1.409693820E0,4.609401668E0
5.532011125E0,2.452771384E-1,-3.988246633E0,2.303465290E0,4.612182176E0
5.541945125E0,-9.858849978E-1,-3.441851812E0,3.226381330E0,4.819527945E0
5.551880125E0,-2.074463621E0,-3.342853773E0,3.273758103E0,5.118160097E0
5.561814125E0,-2.049728291E0,-1.761682461E0,6.482153106E-1,2.779405377E0
5.571749125E0,-2.160352933E0,3.564021782E0,-4.629080418E0,6.228784920E0
5.581683125E0,-3.471464451E0,1.914539788E1,-1.109464380E1,2.239840277E1
5.591618125E0,-3.228452414E0,4.478360015E1,-1.394306228E1,4.701492032E1
5.601553125E0,-4.814940527E-1,6.059028467E1,-1.060104057E1,6.151257183E1
5.611487125E0,7.309594055E-1,4.533208301E1,-4.867989464E0,4.559856767E1
5.621422125E0,2.334834141E0,2.591024281E1,-3.321996463E0,2.622647124E1
5.631356125E0,1.879085780E0,1.765380123E1,-3.920879984E0,1.818133552E1
5.641291125E0,1.132785328E0,1.495196894E1,-6.165448610E0,1.621287557E1
5.651225125E0,3.632297672E-1,1.428952501E1,-7.568509641E0,1.617420165E1
5.661160125E0,1.000386531E0,1.264106044E1,-7.823361704E0,1.489973726E1
5.671095125E0,3.897582557E-1,9.697346374E0,-6.405920616E0,1.162868252E1
5.681029125E0,-1.469125066E0,6.365471917E0,-3.718461950E0,7.516948880E0
5.690964125E0,-1.996701500E0,3.515352482E0,-9.024841145E-1,4.142342035E0
5.700898125E0,-1.461417120E0,1.251893549E0,2.033936715E0,2.799977860E0
5.710833125E0,-1.624906512E-1,-1.389076245E0,4.887962675E0,5.084104163E0
5.720767125E0,8.769661345E-1,-4.174983897E0,6.016745145E0,7.375688597E0
5.730702125E0,1.318838906E0,-6.726290147E0,5.139992580E0,8.567487317E0
5.740636125E0,9.702551711E-1,-9.271089615E0,3.574961922E0,9.983729288E0
5.750571125E0,6.713933811E-1,-1.165867909E1,2.829884268E0,1.201598153E1
5.760506125E0,9.810353903E-1,-1.343035737E1,2.367419650E0,1.367265904E1
5.770440125E0,1.638434849E0,-1.480895540E1,2.044077542E0,1.503887901E1
5.780375125E0,1.875380400E0,-1.670389532E1,1.815947838E0,1.690665068E1
5.790309125E0,2.482493877E0,-1.861979400E1,1.450515571E0,1.884047505E1
5.800244125E0,3.258659715E0,-1.998345591E1,7.607134008E-1,2.026168942E1
5.810178125E0,3.694784235E0,-2.036418683E1,3.454453146E-1,2.069953788E1
5.820113125E0,4.393917392E0,-1.961867034E1,1.104672353E0,2.013502017E1
5.830048208E0,4.008336204E0,-1.766403854E1,2.859136719E0,1.833738475E1
5.839982208E0,2.026843458E0,-1.454168853E1,4.285097785E0,1.529479855E1
5.849917208E0,9.055292713E-1,-1.209873937E1,4.572063634E0,1.296546349E1
5.859851208E0,3.334632003E-1,-1.013538586E1,4.602882846E0,1.113659619E1
5.869786208E0,-1.174439576E-1,-8.371876726E0,4.572527318E0,9.539922383E0
5.879720208E0,-4.737649472E-1,-6.839841321E0,4.227106854E0,8.054583470E0
5.889655208E0,-7.247059545E-1,-5.620947703E0,3.648469609E0,6.740295415E0
5.899590208E0,-8.246659333E-1,-4.881723989E0,3.017881022E0,5.798181514E0
5.909524208E0,-6.913121404E-1,-4.569448759E0,2.494015523E0,5.251465307E0
5.919459208E0,-4.614994622E-1,-4.828010881E0,2.099260347E0,5.284842933E0
5.929393208E0,-2.742450853E-1,-5.335015934E0,1.828234008E0,5.646241667E0
5.939328208E0,2.782402685E-1,-5.945733635E0,1.618753121E0,6.168429928E0
5.949262208E0,5.832570570E-1,-6.457838044E0,1.582600079E0,6.674465073E0
5.959197208E0,1.150809735E0,-6.803591507E0,1.495280977E0,7.060388491E0
5.969132208E0,1.720434009E0,-6.890731393E0,1.662624488E0,7.294271210E0
5.979066208E0,1.974357973E0,-6.091152719E0,1.615677778E0,6.603835668E0
5.989001208E0,1.500739937E0,-4.093492422E0,9.389461818E-1,4.459878978E0
5.998935208E0,1.485710985E0,-1.578095092E0,-2.503309965E-1,2.181831079E0
6.008870208E0,1.324232962E0,1.757358445E0,-1.549699551E0,2.691369603E0
6.018804208E0,3.464284509E-1,6.907514656E0,-3.327652182E0,7.675092210E0
6.028739208E0,1.684305087E-2,1.863503418E1,-5.876041256E0,1.953951493E1
6.038674208E0,6.876205008E-2,3.935180812E1,-7.475345954E0,4.005559047E1
6.048608208E0,-4.835353814E0,5.544753688E1,-7.906538347E0,5.621675321E1
6.058543208E0,-1.307058637E1,4.499612071E1,-8.927393203E0,4.769894607E1
6.068477208E0,-3.919899114E0,2.354733619E1,-8.731698589E0,2.541820629E1
6.078412208E0,6.423135404E0,1.388721787E1,-6.858219704E0,1.676742872E1
6.088346208E0,1.017554336E1,1.140754936E1,-5.439702728E0,1.622541929E1
6.098281208E0,9.929306588E0,1.356316284E1,-4.812409048E0,1.748455880E1
6.108215208E0,8.207159491E0,1.565227826E1,-4.173415966E0,1.815953421E1
6.118150208E0,6.540348104E0,1.204934092E1,-3.340602010E0,1.411107337E1
6.128085208E0,1.436921964E0,7.442451857E0,-1.683600790E0,7.764621433E0
6.138019208E0,-2.690740416E0,5.042898980E0,7.940235266E-1,5.770735436E0
6.147954208E0,-5.202128018E0,3.860397847E0,2.569648089E0,6.969067280E0
6.157888208E0,-6.067960907E0,2.011634558E0,3.029898805E0,7.074398203E0
6.167823208E0,-6.073574234E0,-7.321573538E-1,2.793660475E0,6.725243283E0
6.177757208E0,-5.419930953E0,-3.187059975E0,1.970438585E0,6.589053880E0
6.187692208E0,-3.020628921E0,-5.072248494E0,1.439951114E0,6.076624316E0
6.197627208E0,-8.244968757E-2,-6.624447438E0,1.832455113E0,6.873717593E0
6.207561208E0,1.671958399E0,-8.119787471E0,2.603214907E0,8.689253208E0
6.217496208E0,2.707648517E0,-9.649459432E0,3.032000879E0,1.047074291E1
6.227430208E0,3.383482274E0,-1.130925416E1,3.238419870E0,1.224069219E1
6.237365208E0,3.775982180E0,-1.308118036E1,3.286549472E0,1.400631031E1
6.247299208E0,3.981918191E0,-1.507428334E1,2.826187366E0,1.584541024E1
6.257234208E0,3.472093319E0,-1.711927684E1,2.040025713E0,1.758655101E1
6.267169208E0,3.031121458E0,-1.900006884E1,1.847181033E0,1.932879694E1
6.277103208E0,2.921705727E0,-1.989560266E1,1.967722553E0,2.020503159E1
6.287038208E0,3.138978320E0,-1.985582990E1,2.433997948E0,2.024923485E1
6.296972208E0,3.765764170E0,-1.942496495E1,3.616026918E0,2.011432062E1
6.306907208E0,3.552482302E0,-1.842995362E1,5.270524653E0,1.949517251E1
6.316841208E0,1.689645641E0,-1.562613185E1,6.043613101E0,1.683912582E1
6.326776208E0,6.385064475E-2,-1.234163622E1,5.205757384E0,1.339477403E1
6.336711208E0,-4.402087267E-2,-9.744463822E0,3.870706488E0,1.048517438E1
6.346645208E0,-5.389634483E-3,-7.435923441E0,2.657442277E0,7.896517329E0
6.356580208E0,2.982543192E-1,-5.386805307E0,1.472241778E0,5.592327146E0
6.366514208E0,6.425269930E-1,-3.946089377E0,5.355456045E-1,4.033766404E0
6.376449208E0,8.512686449E-1,-3.344320255E0,3.643964329E-1,3.470147120E0
6.386383208E0,9.693707798E-1,-3.665686736E0,7.100218418E-1,3.857598990E0
6.396318208E0,1.067567385E0,-4.397565762E0,9.673098555E-1,4.627523431E0
6.406252208E0,8.969102561E-1,-4.407499596E0,1.068428679E0,4.622990433E0
6.416187208E0,2.745860876E-1,-3.987062572E0,4.285017970E-1,4.019412800E0
6.426122208E0,-8.079586110E-1,-3.596992477E0,-1.630447553E0,4.031068248E0
6.436056208E0,-9.567239832E-1,-2.431934758E0,-3.139988427E0,4.085236195E0
6.445991208E0,-8.307905994E-1,7.703998983E-1,-4.239999965E0,4.388773032E0
6.455925208E0,-4.200849494E-1,7.517714294E0,-5.609360275E0,9.389218405E0
6.465860208E0,1.864180204E0,2.002152596E1,-5.291534868E0,2.079271533E1
6.475794208E0,5.145495980E0,3.848316915E1,-2.375330494E0,3.889823430E1
6.485729208E0,3.120139176E0,4.668830492E1,-2.800906052E0,4.687620035E1
6.495664208E0,-3.749501309E0,3.078628272E1,-6.314513433E0,3.165007178E1
6.505598208E0,-3.547342307E0,1.689422687E1,-6.876582885E0,1.858187103E1
6.515533208E0,-3.013223715E0,1.270279885E1,-6.592529826E0,1.462539111E1
6.525467208E0,-2.628769871E0,1.351402050E1,-7.411442319E0,1.563549354E1
6.535402208E0,2.255015261E-2,1.449773384E1,-8.853416569E0,1.698728289E1
6.545336208E0,3.577769755E0,1.382258391E1,-1.007517123E1,1.747493456E1
6.555271208E0,6.675495384E0,1.285707646E1,-9.793451210E0,1.748651882E1
6.565206208E0,8.028705978E0,1.148014255E1,-6.195844191E0,1.531803766E1
6.575140208E0,6.551473017E0,8.151026221E0,-1.514546675E0,1.056668722E1
6.585075208E0,3.060496992E0,4.331509182E0,2.055806179E0,5.688141408E0
6.595009208E0,-2.050410953E-1,1.837544822E0,4.645743814E0,5.000154838E0
6.604944208E0,-2.038515524E0,3.689195466E-1,5.051642321E0,5.459920999E0
6.614878208E0,-2.604969656E0,-1.138601992E0,3.943249677E0,4.861224066E0
6.624813208E0,-1.992015688E0,-2.817760944E0,2.812160773E0,4.451533606E0
6.634748208E0,-5.941121570E-1,-4.572714429E0,2.014577754E0,5.032018485E0
6.644682208E0,5.210757558E-1,-6.281533967E0,1.496121807E0,6.478238139E0
6.654617208E0,1.248752132E0,-8.040753581E0,1.404966053E0,8.257543802E0
6.664551208E0,1.807995625E0,-9.877369280E0,1.542238212E0,1.015922097E1
6.674486208E0,2.652905715E0,-1.152403292E1,1.643534791E0,1.193911429E1
6.684420208E0,3.167976417E0,-1.307270190E1,1.694257632E0,1.355736399E1
6.694355208E0,2.979368044E0,-1.474998389E1,1.951701474E0,1.517391833E1
6.704290208E0,2.589381564E0,-1.615367233E1,2.460742820E0,1.654391978E1
6.714224208E0,2.181734739E0,-1.724669937E1,3.562994718E0,1.774552160E1
6.724159208E0,1.460511678E0,-1.789318741E1,4.506071081E0,1.850956311E1
6.734093208E0,4.730768761E-1,-1.724309280E1,5.332721486E0,1.805508155E1
6.744028208E0,-8.069056736E-1,-1.455323795E1,6.006734127E0,1.576479262E1
6.753962208E0,-7.504115570E-1,-1.211692772E1,5.426921884E0,1.329791472E1
6.763897208E0,-6.927907551E-1,-1.078600320E1,4.417589844E0,1.167616907E1
6.773832208E0,-1.027297391E0,-1.003091015E1,3.308526817E0,1.061229702E1
6.783766208E0,-1.183972219E0,-9.330718351E0,2.114052633E0,9.640192617E0
6.793701208E0,-1.143124155E0,-8.704090961E0,1.153196057E0,8.854252844E0
6.803635208E0,-8.266599070E-1,-8.165608007E0,5.487945181E-1,8.225672991E0
6.813570208E0,-1.826748376E-1,-7.639381987E0,2.267886445E-1,7.644930368E0
6.823504208E0,4.253585532E-1,-7.097037533E0,5.127236295E-1,7.128236610E0
6.833439375E0,7.675011411E-1,-6.412594628E0,7.424540082E-1,6.500897309E0
6.843374375E0,1.008910456E0,-5.749444944E0,2.968567067E-1,5.844838867E0
6.853308375E0,1.142474456E0,-4.956110512E0,-2.232756373E-1,5.090985298E0
6.863243375E0,1.172156092E0,-3.601245741E0,-1.282532667E0,3.998476064E0
6.873177375E0,9.461198384E-1,-1.748774148E0,-2.986745768E0,3.588036239E0
6.883112375E0,3.951152920E-1,8.339421755E-1,-3.768896524E0,3.880226366E0
6.893046375E0,4.652750093E-1,5.986826697E0,-3.563608091E0,6.982684109E0
6.902981375E0,1.534928315E0,1.479302057E1,-3.051673251E0,1.518229798E1
6.912916375E0,2.560179985E0,2.748442787E1,-2.465208046E0,2.771327385E1
6.922850375E0,5.132216661E-1,3.692676430E1,-3.781527094E0,3.712343284E1
6.932785375E0,-2.278132813E0,2.832806180E1,-7.411411328E0,2.937001860E1
6.942719375E0,7.744405436E-1,1.500009854E1,-8.076210512E0,1.705367675E1
6.952654375E0,-4.262004791E-1,1.104605344E1,-6.462518156E0,1.280472899E1
6.962588375E0,-2.245786016E0,1.314113654E1,-5.779684405E0,1.453058072E1
6.972523375E0,-1.526938241E0,1.661887914E1,-7.048141361E0,1.811615249E1
6.982457375E0,7.909309343E-1,1.769602865E1,-8.351160625E0,1.958358715E1
6.992392375E0,2.905925261E0,1.820141637E1,-8.898723135E0,2.046761424E1
7.002327375E0,5.085901158E0,1.729902259E1,-8.097715402E0,1.976602054E1
7.012261375E0,6.602950734E0,1.414656527E1,-5.787881616E0,1.665004027E1
7.022196375E0,6.929287933E0,9.746378201E0,-2.513437343E0,1.221983169E1
7.032130375E0,5.410806373E0,5.605641446E0,9.465469775E-1,7.848311463E0
7.042065375E0,3.236642317E0,1.713234186E0,3.463900785E0,5.040796913E0
7.051999375E0,1.607237323E0,-1.743763084E0,4.052583839E0,4.695461349E0
7.061934375E0,8.810539229E-1,-4.245018337E0,3.010477863E0,5.278201745E0
7.071869375E0,6.273821197E-1,-6.400783253E0,2.089368027E0,6.762328987E0
7.081803375E0,8.114192124E-1,-8.403631200E0,1.240621579E0,8.533379189E0
7.091738375E0,1.023630456E0,-1.033174237E1,7.851088616E-1,1.041196983E1
7.101672375E0,1.133430056E0,-1.201342265E1,9.771168056E-1,1.210626882E1
7.111607375E0,1.127777114E0,-1.341349867E1,1.792575348E0,1.357965958E1
7.121541375E0,9.250857226E-1,-1.454008405E1,2.898774117E0,1.485505702E1
7.131476375E0,9.772928068E-1,-1.522257340E1,3.718169297E0,1.570052945E1
7.141411375E0,1.504059694E0,-1.498009171E1,4.316926226E0,1.566209421E1
7.151345375E0,1.902137843E0,-1.375393292E1,5.015013024E0,1.476276244E1
7.161280375E0,1.341481664E0,-1.284241398E1,5.074958678E0,1.387380177E1
7.171214375E0,4.125188716E-1,-1.193071495E1,4.650017251E0,1.281151012E1
7.181149375E0,-2.936804992E-1,-1.078383038E1,3.899795509E0,1.147107889E1
7.191084375E0,-5.104335675E-1,-9.832666147E0,3.211434385E0,1.035640752E1
7.201018375E0,-3.526476956E-1,-9.550374269E0,2.550499919E0,9.891362845E0
7.210953375E0,-5.627251440E-1,-9.371700316E0,1.877889148E0,9.574544065E0
7.220887375E0,-4.940776628E-1,-8.924643257E0,1.549911220E0,9.071691948E0
7.230822375E0,-5.493226679E-1,-8.737531772E0,1.773811340E0,8.932671690E0
7.240756375E0,-3.667690138E-1,-8.722487471E0,2.311144439E0,9.030929952E0
7.250691375E0,1.595770933E-1,-8.700884932E0,2.901260937E0,9.173231627E0
7.260626375E0,5.863762542E-1,-8.816320664E0,3.552869680E0,9.523351832E0
7.270560375E0,1.196338861E0,-9.169649194E0,4.162345140E0,1.014094720E1
7.280495375E0,1.756973990E0,-9.434635068E0,4.624670741E0,1.065302191E1
7.290429375E0,2.071917889E0,-9.440279970E0,4.519008630E0,1.066926280E1
7.300364375E0,2.375432821E0,-8.989879473E0,1.576092713E0,9.431048842E0
7.310298375E0,3.266084509E0,-7.642000955E0,-2.878641568E0,8.795115912E0
7.320233375E0,4.223782712E0,-5.795788221E0,-5.482787937E0,9.027317712E0
7.330168375E0,3.363254124E0,-3.460196282E0,-5.206324564E0,7.098609165E0
7.340102375E0,1.489620872E0,6.408139050E-1,-3.788432364E0,4.120901913E0
7.350037375E0,1.335517357E0,8.039661906E0,-3.158976090E0,8.740646435E0
7.359971375E0,2.391736612E0,2.307636402E1,-2.344871763E0,2.331817754E1
7.369906375E0,1.888547160E0,4.495696775E1,-2.006295173E0,4.504132303E1
7.379840375E0,-5.648596262E0,4.553057493E1,-4.861932625E0,4.613651788E1
7.389775375E0,-5.855170789E0,2.272883826E1,-8.864147379E0,2.508896615E1
7.399710375E0,-1.508595233E0,1.181249945E1,-1.003617264E1,1.557355978E1
7.409644375E0,-2.664385554E0,1.242814460E1,-8.947624569E0,1.554405719E1
7.419579375E0,-1.498914291E0,1.916492290E1,-7.547923933E0,2.065217106E1
7.429513375E0,1.269403182E0,2.216519006E1,-7.207027752E0,2.334198543E1
7.439448375E0,3.987604316E0,2.124531545E1,-7.629494931E0,2.292321116E1
7.449382375E0,4.891654607E0,1.803382113E1,-7.810304287E0,2.025210711E1
7.459317375E0,2.862235743E0,1.370414388E1,-5.579314942E0,1.507065719E1
7.469252375E0,-6.291256133E-1,9.239415833E0,-1.078681772E0,9.323419884E0
7.479186375E0,-3.664485133E0,5.469579077E0,2.449876939E0,7.024716619E0
7.489121375E0,-3.635456923E0,2.332782353E0,2.667567608E0,5.076843260E0
7.499055375E0,-2.500438982E0,-7.051677758E-1,1.959452544E0,3.254060689E0
7.508990375E0,-1.583001198E0,-3.745044562E0,9.726062635E-1,4.180575858E0
7.518924375E0,-7.664427220E-1,-6.323666664E0,2.775585562E-2,6.370005095E0
7.528859375E0,3.624588849E-1,-8.551889691E0,-2.119729695E-1,8.562191675E0
7.538794375E0,1.337923048E0,-1.054724385E1,1.414757216E-1,1.063270456E1
7.548728375E0,2.234031651E0,-1.190513923E1,8.643628997E-1,1.214373751E1
7.558663375E0,3.337329324E0,-1.284669415E1,1.884221682E0,1.340617801E1
7.568597375E0,5.275847374E0,-1.328492659E1,2.887962907E0,1.458300962E1
7.578532375E0,7.199915199E0,-1.327114470E1,3.747310358E0,1.555649046E1
7.588466375E0,7.332851062E0,-1.360449797E1,4.040604941E0,1.597434061E1
7.598401375E0,6.368296707E0,-1.351843047E1,4.926189140E0,1.573437335E1
7.608336375E0,4.089732662E0,-1.311687176E1,6.408081747E0,1.516053263E1
7.618270375E0,1.664888238E0,-1.261932867E1,7.097404153E0,1.457369050E1
7.628205375E0,-1.660082996E-1,-1.181689305E1,6.396132377E0,1.343789528E1
7.638139375E0,-1.022571014E0,-1.082930768E1,4.952988099E0,1.195205620E1
7.648074375E0,-1.390961680E0,-1.024824530E1,3.410471267E0,1.089002390E1
7.658008375E0,-1.601336020E0,-1.001006131E1,2.077215759E0,1.034796743E1
7.667943375E0,-1.867317089E0,-9.726036322E0,1.288738317E0,9.987166871E0
7.677878375E0,-2.255130305E0,-9.452324649E0,8.187201190E-1,9.752043714E0
7.687812375E0,-2.471675944E0,-9.507297832E0,5.579918960E-1,9.839169121E0
7.697747375E0,-1.989723287E0,-9.447645122E0,7.606201378E-1,9.684809761E0
7.707681375E0,-1.339045129E0,-9.264330819E0,1.361646956E0,9.459119928E0
7.717616375E0,-4.969458682E-1,-8.994475969E0,2.001637281E0,9.227898187E0
7.727550375E0,5.744308311E-1,-8.773027294E0,2.441350822E0,9.124482041E0
7.737485375E0,1.713338267E0,-8.783396747E0,2.626014955E0,9.326282269E0
7.747420375E0,2.708082966E0,-8.882947932E0,2.934702626E0,9.739248267E0
7.757354375E0,3.336020425E0,-8.750717828E0,2.859516788E0,9.791880873E0
7.767289375E0,3.947006806E0,-8.173968941E0,1.356528304E0,9.177842884E0
7.777223375E0,4.855516768E0,-6.729113767E0,-7.973894763E-1,8.336236870E0
7.787158375E0,4.836190259E0,-3.851925232E0,-1.511527758E0,6.364807960E0
7.797093375E0,3.545805951E0,-1.318441880E-1,-2.432649872E0,4.302081837E0
7.807027375E0,2.241594294E0,3.873096246E0,-5.008672888E0,6.716578266E0
7.816962375E0,1.804449142E0,1.112487391E1,-7.629075100E0,1.360961583E1
7.826896375E0,1.882318121E0,2.778823282E1,-8.198694477E0,2.903355982E1
7.836831208E0,2.574275575E0,5.166382702E1,-1.858064455E0,5.176128206E1
7.846765208E0,-3.902313905E0,4.778330130E1,8.179064789E-1,4.794935774E1
7.856700208E0,-6.721209501E0,2.009496933E1,-3.698058968E0,2.150948836E1
7.866634208E0,-6.664019054E0,9.647543299E0,-6.354585571E0,1.333660374E1
7.876569208E0,-7.780462437E0,9.669153439E0,-7.596624223E0,1.455117946E1
7.886504208E0,-4.207616915E0,1.536384447E1,-8.024863772E0,1.783676528E1
7.896438208E0,8.309573181E-1,1.794633509E1,-8.817419940E0,2.001270416E1
7.906373208E0,1.924622873E0,1.610830612E1,-7.870454010E0,1.803124360E1
7.916307208E0,-1.376918129E0,1.230532033E1,-4.814655840E0,1.328524455E1
7.926242208E0,-4.338503329E0,8.904831136E0,-2.128409886E0,1.013157230E1
7.936177208E0,-4.377778492E0,5.739325168E0,-1.126411424E0,7.305723825E0
7.946111208E0,-2.668875630E0,2.791803984E0,-8.992760396E-1,3.965572344E0
7.956046208E0,-7.737892368E-1,-8.027057648E-3,-8.020540926E-1,1.114497638E0
7.965980208E0,1.011894583E0,-2.795521644E0,-7.577184570E-1,3.068062771E0
7.975915208E0,2.130786780E0,-5.540666601E0,-6.560119879E-1,5.972402399E0
7.985849208E0,2.509945385E0,-7.749578029E0,-4.819108495E-1,8.160148499E0
7.995784208E0,2.931855032E0,-9.282250196E0,-3.716221297E-1,9.741357484E0
8.005719208E0,3.616413126E0,-9.979862784E0,-4.440588990E-1,1.062418436E1
8.015653208E0,4.842196518E0,-1.023773201E1,-6.718538493E-2,1.132530519E1
8.025588208E0,6.353862855E0,-1.050306112E1,1.214208536E0,1.233532198E1
8.035522208E0,7.401765761E0,-1.080916987E1,2.981546717E0,1.343554653E1
8.045457208E0,7.085696273E0,-1.173517938E1,4.184928549E0,1.433300924E1
8.055391208E0,6.710777484E0,-1.254113152E1,5.513836067E0,1.525506153E1
8.065326208E0,5.732588006E0,-1.300432339E1,7.228810970E0,1.594461351E1
8.075261208E0,3.058282651E0,-1.255953972E1,8.485703888E0,1.546293314E1
8.085195208E0,4.784406001E-1,-1.185571272E1,8.341874077E0,1.450426463E1
8.095130208E0,-8.872462705E-1,-1.123385548E1,6.931822701E0,1.323015045E1
8.105064208E0,-1.383588341E0,-1.031363706E1,5.238625753E0,1.165026291E1
8.114999208E0,-1.556948783E0,-9.353041851E0,3.665130081E0,1.016546408E1
8.124933208E0,-1.715520155E0,-9.003445013E0,2.273750618E0,9.443250149E0
8.134868208E0,-1.938771234E0,-9.275931110E0,1.135398594E0,9.544153279E0
8.144803208E0,-1.857093818E0,-9.811689845E0,4.635038146E-1,9.996643980E0
8.154737208E0,-1.173663285E0,-1.030247589E1,3.283354846E-1,1.037430958E1
8.164672208E0,-8.091781209E-1,-1.078997580E1,6.214955816E-1,1.083810887E1
8.174606208E0,-9.467591583E-1,-1.093416229E1,1.292225596E0,1.105088707E1
8.184541208E0,-6.033086944E-1,-1.046925836E1,1.909285480E0,1.065902074E1
8.194476208E0,-2.991961412E-1,-9.712757880E0,2.306896437E0,9.987439869E0
8.204410208E0,-3.665544941E-1,-8.772730256E0,2.033709551E0,9.012831568E0
8.214345208E0,-6.722501443E-1,-7.171025861E0,6.020828256E-1,7.227588525E0
8.224279208E0,-4.297349748E-1,-4.485150036E0,-1.436573178E0,4.729163297E0
8.234214208E0,9.187586698E-1,-2.954095209E-1,-3.234712443E0,3.375610888E0
8.244148208E0,1.948834585E0,5.169759586E0,-3.940345073E0,6.786065849E0
8.254083208E0,2.399557263E0,1.326383802E1,-3.894881509E0,1.403058716E1
8.264018208E0,2.371962206E0,2.887405843E1,-1.421038003E0,2.900615114E1
8.273952208E0,7.382939335E-1,4.571789165E1,2.924973151E-1,4.572478813E1
8.283887208E0,-3.010660003E0,3.509393585E1,-2.235121280E0,3.529368462E1
8.293821208E0,-1.496209515E0,1.397715857E1,-6.329973471E0,1.541649015E1
8.303756208E0,-1.167971021E0,7.947769988E0,-8.725254958E0,1.186007075E1
8.313690208E0,-2.887050157E0,9.463030901E0,-1.176778579E1,1.537415998E1
8.323625208E0,-2.834494798E0,1.683631137E1,-1.401200096E1,2.208691721E1
8.333560208E0,1.563940153E-1,2.203261263E1,-1.425826346E1,2.624420994E1
8.343494208E0,1.832050193E0,2.167279837E1,-1.176739403E1,2.472929759E1
8.353429208E0,2.206463783E0,1.747790529E1,-6.799582071E0,1.888332524E1
8.363363208E0,5.021428004E-1,1.290019266E1,-2.732003925E0,1.319586918E1
8.373298208E0,-1.305243545E0,9.633503550E0,-3.665490854E-1,9.728433049E0
8.383232208E0,-1.719890364E0,7.131560664E0,1.548868954E0,7.497744688E0
8.393167208E0,-5.602948219E-1,4.713021877E0,2.845719698E0,5.533952123E0
8.403102208E0,1.082281026E0,2.544141072E0,3.922510773E0,4.798966219E0
8.413036208E0,2.451073279E0,5.383537298E-1,4.279095910E0,4.960669992E0
8.422971208E0,3.043739749E0,-1.913910043E0,3.517815329E0,5.030151887E0
8.432905208E0,2.615718008E0,-4.562625643E0,2.357221960E0,5.763334870E0
8.442840208E0,2.134643603E0,-6.850501379E0,1.568497765E0,7.344811618E0
8.452774208E0,1.777015030E0,-8.760917711E0,1.368400490E0,9.043449643E0
8.462709208E0,1.840121543E0,-1.039833514E1,1.655163149E0,1.068882529E1
8.472644208E0,1.771203628E0,-1.193317078E1,2.203406859E0,1.226347133E1
8.482578208E0,1.714488414E0,-1.349427211E1,2.822058355E0,1.389240309E1
8.492513208E0,1.954960128E0,-1.505852626E1,3.477430073E0,1.557798453E1
8.502447208E0,2.176746041E0,-1.642764362E1,3.750645317E0,1.699038076E1
8.512382208E0,2.207515844E0,-1.746350711E1,3.924705233E0,1.803470315E1
8.522317208E0,2.101027083E0,-1.801130467E1,4.407423583E0,1.866137169E1
8.532251208E0,1.448378121E0,-1.665482666E1,5.032711376E0,1.745878673E1
8.542186208E0,8.155237386E-1,-1.376462865E1,5.481822562E0,1.483847901E1
8.552120208E0,5.504733999E-1,-1.169251225E1,5.231368189E0,1.282127438E1
8.562055208E0,1.383614945E-1,-1.039368076E1,4.772845033E0,1.143799779E1
8.571989208E0,-8.041259073E-2,-9.439011124E0,4.043834065E0,1.026907937E1
8.581924208E0,-2.176071272E-1,-8.662768688E0,3.275448533E0,9.263880250E0
8.591859208E0,-3.065989720E-1,-7.901491030E0,2.640919215E0,8.336787015E0
8.601793208E0,-4.486633620E-1,-7.284441379E0,2.184652792E0,7.618207981E0
8.611728208E0,-5.097907392E-1,-6.972502365E0,2.088080178E0,7.296283619E0
8.621662208E0,-1.900125816E-1,-6.784804403E0,2.396684818E0,7.198178498E0
8.631597208E0,3.329271934E-1,-6.867987478E0,3.086657727E0,7.537078243E0
8.641532208E0,3.251763436E-1,-7.345748266E0,3.480795438E0,8.135213219E0
8.651466208E0,-1.862267653E-1,-7.913990039E0,3.543529922E0,8.673091897E0
8.661401208E0,-4.119446019E-1,-8.300229038E0,3.224131614E0,8.913951150E0
8.671335208E0,-4.473204028E-1,-8.267080003E0,3.525923663E-1,8.286677784E0
8.681270208E0,7.451494284E-2,-7.355430670E0,-3.849077638E0,8.302006473E0
8.691204208E0,8.374532823E-1,-5.261335754E0,-6.250756563E0,8.213095611E0
8.701139208E0,4.947310160E-1,-1.995013847E0,-6.573008897E0,6.886892259E0
8.711074208E0,6.564290406E-1,2.838202225E0,-6.306123848E0,6.946473130E0
8.721008208E0,1.624839781E0,1.218739602E1,-4.501939438E0,1.309351690E1
8.730943208E0,3.039367786E0,3.128328670E1,-1.280401941E0,3.145665609E1
8.740877208E0,4.103467187E0,5.221273556E1,2.330381193E0,5.242555554E1
8.750812208E0,1.236033781E-1,4.081884646E1,-1.451534448E0,4.084483390E1
8.760746208E0,3.391357304E-1,1.802114203E1,-6.842707626E0,1.927950261E1
8.770681208E0,2.701618284E-1,1.281672951E1,-7.812805141E0,1.501271017E1
8.780616208E0,5.726075962E-2,1.573754704E1,-9.064391127E0,1.816141107E1
8.790550208E0,3.070443690E0,1.998361495E1,-1.061788757E1,2.283663783E1
8.800485208E0,4.202381610E0,1.940799633E1,-1.038373465E1,2.240875450E1
8.810419208E0,3.206986993E0,1.588512842E1,-8.253705082E0,1.818641576E1
8.820354208E0,1.350866591E0,1.256612252E1,-5.943967776E0,1.396649665E1
8.830288208E0,-1.109365036E0,9.439711620E0,-3.247577195E0,1.004418259E1
8.840223375E0,-3.008563192E0,6.781358639E0,1.724270806E-1,7.420782207E0
8.850158375E0,-3.462310050E0,3.991560250E0,2.593115011E0,5.885948486E0
8.860092375E0,-3.167227096E0,7.790654719E-1,4.036316885E0,5.189424292E0
8.870027375E0,-1.946509147E0,-2.411939034E0,4.487270821E0,5.453617807E0
8.879961375E0,-6.986700574E-1,-4.854588815E0,3.557974299E0,6.059237041E0
8.889896375E0,4.321267784E-2,-6.703821051E0,2.042906052E0,7.008319995E0
8.899831375E0,6.224491163E-1,-8.280881771E0,5.556386840E-1,8.322810832E0
8.909765375E0,1.293485963E0,-9.707589526E0,-4.775035107E-1,9.805019630E0
8.919700375E0,2.372204719E0,-1.105874073E1,-6.286078423E-1,1.132776455E1
8.929634375E0,3.068735719E0,-1.246218475E1,-8.679753095E-2,1.283474665E1
8.939569375E0,3.035697196E0,-1.384371107E1,7.587212545E-1,1.419293668E1
8.949503375E0,3.503938133E0,-1.505985241E1,2.013041983E0,1.559259680E1
8.959438375E0,4.003894367E0,-1.603934523E1,3.080131942E0,1.681603337E1
8.969373375E0,3.768278473E0,-1.663072093E1,3.620069683E0,1.743231785E1
8.979307375E0,3.654251628E0,-1.641951365E1,4.609923478E0,1.744148439E1
8.989242375E0,2.635136027E0,-1.442909454E1,5.993826399E0,1.584514645E1
8.999176375E0,1.512709626E0,-1.160833690E1,7.047368360E0,1.366408346E1
9.009111375E0,1.002164231E0,-9.982283531E0,7.049950490E0,1.226181551E1
9.019046375E0,2.865506968E-1,-8.830498992E0,6.145527731E0,1.076231085E1
9.028980375E0,-2.488834452E-1,-8.058994555E0,4.769932534E0,9.368115744E0
9.038915375E0,-6.704240589E-1,-7.641929619E0,3.433723013E0,8.404701687E0
9.048849375E0,-9.657957921E-1,-7.241412304E0,2.144061421E0,7.613659636E0
9.058784375E0,-1.259837284E0,-7.073656856E0,1.282630315E0,7.298558202E0
9.068718375E0,-1.179340786E0,-7.216247057E0,1.344120220E0,7.434495642E0
9.078653375E0,-5.873334068E-1,-7.609554756E0,1.851273499E0,7.853502256E0
9.088588375E0,1.045971863E-1,-8.267075910E0,2.606730838E0,8.668940554E0
9.098522375E0,4.170191446E-1,-8.895574994E0,3.226405304E0,9.471792366E0
9.108457375E0,4.659410803E-1,-9.322360341E0,3.043834766E0,9.817761125E0
9.118391375E0,3.921675644E-1,-9.647411737E0,1.641431840E0,9.793908673E0
9.128326375E0,4.236075679E-1,-9.689191847E0,-7.109907255E-1,9.724473756E0
9.138261375E0,8.191802949E-1,-8.511635705E0,-3.087212043E0,9.091197772E0
9.148195375E0,1.503137442E0,-5.586907552E0,-4.402065779E0,7.269879042E0
9.158130375E0,2.147410121E0,-2.083850595E0,-5.258618553E0,6.050361362E0
9.168064375E0,1.894648876E0,2.068128601E0,-6.317534105E0,6.912169517E0
9.177999375E0,9.758217935E-1,1.018394347E1,-6.747783927E0,1.225550981E1
9.187933375E0,1.545125567E0,2.917058243E1,-4.134724940E0,2.950264806E1
9.197868375E0,2.686726595E0,5.490164083E1,2.184378265E0,5.501072780E1
9.207803375E0,-1.783539353E0,4.691790403E1,1.953692159E-1,4.695219803E1
9.217737375E0,-1.202599913E0,1.952092010E1,-4.193396194E0,2.000242835E1
9.227672375E0,-3.391563053E-1,1.044834053E1,-5.619964786E0,1.186873418E1
9.237606375E0,-6.400819067E-1,9.653105755E0,-7.903102523E0,1.249204487E1
9.247541375E0,5.200534067E-1,1.534585610E1,-1.076540346E1,1.875259093E1
9.257475375E0,3.657559398E0,1.901526342E1,-1.287072152E1,2.325109580E1
9.267410375E0,3.538831100E0,1.811697088E1,-1.269597982E1,2.240392517E1
9.277345375E0,1.198805362E0,1.499789765E1,-9.065110919E0,1.756560002E1
9.287279375E0,-1.171458812E0,1.205708498E1,-4.924474736E0,1.307654638E1
9.297214375E0,-4.721140443E0,9.589681007E0,1.562482734E0,1.080243034E1
9.307148375E0,-6.023975812E0,6.498318903E0,5.487530029E0,1.042254379E1
9.317083375E0,-3.390894205E0,4.048342561E0,4.634917401E0,7.026357543E0
9.327018375E0,-2.463925679E-1,1.580762007E0,3.780010034E0,4.104630760E0
9.336952375E0,1.379809577E0,-1.175623637E0,2.486600962E0,3.077198360E0
9.346887375E0,1.742658545E0,-4.142446480E0,2.064040813E-1,4.498813654E0
9.356821375E0,1.369329028E0,-6.835616122E0,-1.022163170E0,7.045958225E0
9.366756375E0,1.915799717E0,-8.772739611E0,-8.921284032E-1,9.023698905E0
9.376690375E0,2.719997837E0,-1.067148899E1,4.719960183E-2,1.101277864E1
9.386625375E0,3.314434551E0,-1.249340889E1,1.637764174E0,1.302892987E1
9.396560375E0,4.540217358E0,-1.417442374E1,3.530031625E0,1.529669851E1
9.406494375E0,5.365016243E0,-1.570926991E1,4.570108910E0,1.721773666E1
9.416429375E0,4.773586752E0,-1.682626702E1,4.146225244E0,1.797502646E1
9.426363375E0,3.820293549E0,-1.669773703E1,3.697446472E0,1.752370324E1
9.436298375E0,1.611124113E0,-1.479373159E1,3.933264095E0,1.539223121E1
9.446233375E0,-1.158151426E-1,-1.257043893E1,4.330862187E0,1.329607895E1
9.456167375E0,-6.153129550E-1,-1.132366872E1,4.754543248E0,1.229673797E1
9.466102375E0,-1.115344399E0,-1.036485399E1,4.727935493E0,1.144672728E1
9.476036375E0,-1.539600386E0,-9.492089224E0,4.128133081E0,1.046477950E1
9.485971375E0,-1.684891270E0,-8.715852050E0,3.347931203E0,9.487548624E0
9.495905375E0,-1.224474347E0,-8.471753016E0,2.555202542E0,8.933028413E0
9.505840375E0,-3.576212642E-1,-8.705622346E0,1.617648290E0,8.861858687E0
9.515775375E0,4.405973473E-1,-8.923393123E0,6.724201521E-1,8.959532337E0
9.525709375E0,1.354307823E0,-9.127423527E0,2.338073498E-1,9.230312876E0
9.535644375E0,2.189597051E0,-9.489908797E0,2.657898653E-1,9.742861411E0
9.545578375E0,2.857057741E0,-1.009108969E1,5.783603793E-1,1.050368368E1
9.555513375E0,3.382854868E0,-1.078154529E1,5.883447924E-1,1.131510386E1
9.565448375E0,3.378243169E0,-1.161519919E1,-2.276648498E-1,1.209864499E1
9.575382375E0,2.924728445E0,-1.230888947E1,-2.008536995E0,1.281003581E1
9.585317375E0,3.019948305E0,-1.148671014E1,-3.651132723E0,1.242559325E1
9.595251375E0,2.810238501E0,-8.684242587E0,-3.652178790E0,9.831170818E0
9.605186375E0,9.189177141E-1,-5.206547343E0,-3.295571726E0,6.230035152E0
9.615120375E0,7.251921505E-2,-1.523319545E0,-4.353847300E0,4.613214474E0
9.625055375E0,9.268927315E-1,3.843012321E0,-6.157090015E0,7.316941389E0
9.634990375E0,3.400659640E0,1.695081856E1,-5.715948000E0,1.820897574E1
9.644924375E0,6.216241618E0,4.777935794E1,-6.587014148E-1,4.818653954E1
9.654859375E0,2.289675509E0,7.114502815E1,1.988723120E0,7.120963884E1
9.664793375E0,-4.579678463E0,4.255812648E1,-2.118099783E0,4.285620062E1
9.674728375E0,-1.051329374E0,1.729009974E1,-4.955695944E0,1.801698545E1
9.684663375E0,-2.099976046E0,1.044992630E1,-4.889941081E0,1.172699377E1
9.694597375E0,-4.068274842E0,1.157776181E1,-5.376879659E0,1.339799476E1
9.704532375E0,-1.183506854E0,1.534724072E1,-8.276498698E0,1.747681083E1
9.714466375E0,6.809179837E-1,1.537550850E1,-1.065653649E1,1.871982054E1
9.724401375E0,-9.999418505E-1,1.303471838E1,-8.513139024E0,1.560055458E1
9.734335375E0,-2.864467918E0,1.003818408E1,-4.002474663E0,1.117989801E1
9.744270375E0,-3.571035809E0,7.336135443E0,-1.252235319E0,8.254651615E0
9.754205375E0,-3.641074343E0,3.508258640E0,2.054576802E0,5.457708942E0
9.764139375E0,-2.657033849E0,-8.908537102E-1,4.706112807E0,5.477312020E0
9.774074375E0,-7.118833029E-1,-4.463286127E0,5.199821291E0,6.889545874E0
9.784008375E0,3.006508919E-1,-7.066884611E0,4.238233521E0,8.245839705E0
9.793943375E0,2.521433410E-1,-8.920474777E0,3.184877794E0,9.475330763E0
9.803878375E0,1.339424613E0,-1.016857933E1,2.412446280E0,1.053631629E1
9.813812375E0,2.767305028E0,-1.103168216E1,2.068934055E0,1.156012441E1
9.823747375E0,3.729391565E0,-1.173861287E1,2.242127998E0,1.251920650E1
9.833680750E0,4.359189608E0,-1.275482971E1,2.589151476E0,1.372559363E1
9.843615750E0,4.787920032E0,-1.384459049E1,2.911570163E0,1.493566554E1
9.853549750E0,5.316000203E0,-1.488847519E1,3.209221799E0,1.613151128E1
9.863484750E0,5.896618778E0,-1.575846604E1,3.637815982E0,1.721432746E1
9.873419750E0,5.533172225E0,-1.570256900E1,4.496397740E0,1.724541274E1
9.883353750E0,3.051613317E0,-1.387900253E1,5.818751991E0,1.535568070E1
9.893288750E0,1.528357799E0,-1.187101254E1,6.265137205E0,1.350958032E1
9.903222750E0,1.001082058E0,-1.059775093E1,5.248094734E0,1.186831868E1
9.913157750E0,2.240366524E-1,-9.710605520E0,3.474697376E0,1.031598632E1
9.923092750E0,-7.627821457E-1,-8.942950889E0,2.103658915E0,9.218654351E0
9.933026750E0,-1.779697148E0,-8.188074179E0,1.510175882E0,8.514253455E0
9.942961750E0,-2.723422844E0,-7.600819016E0,1.478606472E0,8.208273801E0
9.952895750E0,-3.135472037E0,-7.191208110E0,1.671501146E0,8.021133029E0
9.962830750E0,-2.925458178E0,-6.944374334E0,2.023097147E0,7.802279314E0
9.972764750E0,-2.668802540E0,-7.129791296E0,2.379520317E0,7.976123611E0
9.982699750E0,-2.331437201E0,-7.572047206E0,2.640308766E0,8.351211211E0
9.992634750E0,-1.879851473E0,-8.039786451E0,3.126477558E0,8.828752441E0
1.000256875E1,-1.333426247E0,-8.650524033E0,3.697887644E0,9.501787444E0
1.001250375E1,-5.615034413E-1,-9.403569980E0,3.852741795E0,1.017772243E1
1.002243775E1,1.184400125E-1,-9.793399170E0,3.158858269E0,1.029092226E1
1.003237275E1,9.090622321E-1,-9.616703914E0,8.105556518E-2,9.659915027E0
1.004230775E1,1.514691833E0,-8.967047265E0,-3.822832118E0,9.864901084E0
1.005224175E1,2.075942674E0,-7.123060566E0,-5.600598807E0,9.295925818E0
1.006217675E1,1.929805991E0,-3.454229198E0,-5.835536424E0,7.050484797E0
1.007211075E1,1.118622275E0,1.603349801E0,-7.012116666E0,7.279548510E0
1.008204575E1,1.558396700E0,1.290913773E1,-8.968621920E0,1.579590505E1
1.009197975E1,4.134848316E0,4.385214805E1,-5.417824202E0,4.437860609E1
1.010191475E1,2.728216683E0,7.707741669E1,2.215172919E0,7.715749037E1
1.011184975E1,-3.340899341E0,5.165109412E1,-9.580510819E-1,5.176789540E1
1.012178375E1,2.527848390E0,2.028471148E1,-6.765314464E0,2.153204628E1
1.013171875E1,3.080286893E0,1.119340445E1,-9.266429969E0,1.485419788E1
1.014165275E1,-9.413333076E-1,1.013850359E1,-9.729212530E0,1.408307282E1
1.015158775E1,-2.569187620E0,1.649573678E1,-1.050602916E1,1.972528088E1
1.016152275E1,-1.074249875E0,1.886563200E1,-9.733076370E0,2.125556066E1
1.017145675E1,-1.936135309E0,1.606067236E1,-7.166360368E0,1.769323423E1
1.018139175E1,-3.058360127E0,1.283947284E1,-4.677355323E0,1.400297405E1
1.019132575E1,-3.784150155E0,9.759469532E0,-2.145574973E0,1.068506106E1
1.020126075E1,-2.825518445E0,6.281797677E0,1.204711196E0,6.992557872E0
1.021119475E1,-6.832711226E-1,2.846425164E0,3.763902124E0,4.768223448E0
1.022112975E1,5.962306398E-1,-1.120337629E0,5.265318292E0,5.416107837E0
1.023106475E1,9.457233971E-1,-4.591188707E0,5.433721611E0,7.176262052E0
1.024099875E1,7.978835660E-1,-7.274189456E0,4.493655396E0,8.587397117E0
1.025093375E1,8.597590944E-1,-9.346837955E0,3.004436227E0,9.855414882E0
1.026086775E1,1.772480514E0,-1.087628421E1,1.620790876E0,1.113832162E1
1.027080275E1,2.830376604E0,-1.219047166E1,9.792715046E-1,1.255299182E1
1.028073775E1,3.221947972E0,-1.360984701E1,9.383927429E-1,1.401747000E1
1.029067175E1,3.228160638E0,-1.534370666E1,1.194129783E0,1.572502150E1
1.030060675E1,3.399049024E0,-1.714179213E1,1.722097103E0,1.756018765E1
1.031054075E1,3.736909623E0,-1.855996412E1,2.081595616E0,1.904651680E1
1.032047575E1,4.367483884E0,-1.921128196E1,2.928677362E0,1.991796730E1
1.033041075E1,4.864152521E0,-1.891021000E1,4.158338920E0,1.996366210E1
1.034034475E1,3.003495702E0,-1.572627127E1,5.885648232E0,1.705806113E1
1.035027975E1,1.678712225E0,-1.265396524E1,6.874772587E0,1.449839333E1
1.036021375E1,1.322662985E0,-1.113916100E1,6.335041838E0,1.288266665E1
1.037014875E1,4.212228906E-1,-9.962179635E0,4.759855735E0,1.104892205E1
1.038008275E1,-2.109283279E-1,-9.158993229E0,3.663139396E0,9.866622419E0
1.039001775E1,-7.506877649E-1,-8.534748579E0,3.214373196E0,9.150828403E0
1.039995275E1,-1.275796967E0,-7.832867523E0,2.868834911E0,8.438701634E0
1.040988675E1,-1.482458910E0,-7.020068294E0,2.162534237E0,7.493703864E0
1.041982175E1,-1.424729350E0,-6.218412690E0,1.434764341E0,6.538888194E0
1.042975575E1,-1.362538657E0,-5.556889701E0,1.145762784E0,5.835092724E0
1.043969075E1,-1.170956682E0,-5.363456206E0,1.282428586E0,5.637590363E0
1.044962575E1,-7.534839034E-1,-5.679613402E0,1.754045413E0,5.991862957E0
1.045955975E1,-4.557556692E-1,-6.590428337E0,2.851128080E0,7.195164364E0
1.046949475E1,-3.354737654E-1,-7.814962179E0,4.272670697E0,8.913018086E0
1.047942875E1,-4.191257867E-1,-8.693466570E0,5.074803143E0,1.007500146E1
1.048936375E1,-6.145034811E-1,-9.078830241E0,4.350542161E0,1.008612860E1
1.049929875E1,-2.620018014E-1,-8.773131959E0,1.505156047E0,8.905166144E0
1.050923275E1,4.782022530E-1,-7.394640929E0,-2.227457919E0,7.737632755E0
1.051916775E1,9.750351968E-1,-5.015846252E0,-4.935792607E0,7.104326563E0
1.052910175E1,1.415620265E0,-2.031348445E0,-5.987889721E0,6.479597252E0
1.053903675E1,1.522469653E0,1.307235106E0,-7.566608126E0,7.828175777E0
1.054897075E1,8.296759739E-1,8.865529661E0,-9.831630020E0,1.326449876E1
1.055890575E1,1.915787145E0,2.598218227E1,-8.887761360E0,2.752701106E1
1.056884075E1,4.269835090E0,5.189045106E1,1.659962836E0,5.209228235E1
1.057877475E1,-2.178086369E0,5.541106429E1,5.537466420E0,5.572964776E1
1.058870975E1,-1.524754452E0,2.808449721E1,-1.812620188E0,2.818420571E1
1.059864375E1,3.492148099E0,1.384380580E1,-6.824128683E0,1.582449966E1
1.060857875E1,2.029803903E0,1.091664403E1,-9.122940466E0,1.437084770E1
1.061851375E1,1.570221524E0,1.522014096E1,-1.069167007E1,1.866628231E1
1.062844775E1,2.436427758E0,1.968280845E1,-1.073660359E1,2.255268909E1
1.063838275E1,1.418364071E0,1.823901864E1,-8.652230836E0,2.023696262E1
1.064831675E1,5.420273893E-2,1.466576411E1,-5.350563095E0,1.561140929E1
1.065825175E1,-1.291249696E0,1.165518012E1,-1.569667208E0,1.183107791E1
1.066818575E1,-3.271761279E0,8.912405620E0,1.042103345E0,9.550988178E0
1.067812075E1,-3.187382156E0,6.276424670E0,2.062523753E0,7.335319753E0
1.068805575E1,-2.059009869E0,3.425738640E0,2.644516715E0,4.792564608E0
1.069798975E1,-1.084958758E0,1.564586270E-1,3.363466670E0,3.537587151E0
1.070792475E1,-2.239498030E-1,-2.636317164E0,3.495566382E0,4.383982896E0
1.071785875E1,5.413434112E-1,-4.920574059E0,2.912227975E0,5.743359081E0
1.072779375E1,9.848143727E-1,-7.062017389E0,2.028727723E0,7.413345070E0
1.073772875E1,1.549454845E0,-8.996348248E0,1.222044683E0,9.210238070E0
1.074766275E1,2.149856889E0,-1.068159298E1,8.182910796E-1,1.092647764E1
1.075759775E1,2.542244235E0,-1.220480435E1,8.502300332E-1,1.249572512E1
1.076753175E1,2.465912343E0,-1.376914387E1,1.221286883E0,1.404142401E1
1.077746675E1,1.987543152E0,-1.549099451E1,1.726703832E0,1.571313925E1
1.078740175E1,1.325922515E0,-1.712679987E1,1.841077709E0,1.727642647E1
1.079733575E1,1.187400953E0,-1.822016605E1,2.319335218E0,1.840553416E1
1.080727075E1,1.287828928E0,-1.861149563E1,2.884182682E0,1.887762651E1
1.081720475E1,1.648270451E0,-1.841904973E1,3.618626590E0,1.884337143E1
1.082713975E1,2.170796060E0,-1.731074743E1,4.111152182E0,1.792417095E1
1.083707421E1,1.137988911E0,-1.454422388E1,4.635542761E0,1.530744014E1
1.084700921E1,2.460158245E-1,-1.217977593E1,4.859482057E0,1.311571696E1
1.085694421E1,3.835077649E-1,-1.084019988E1,4.694411359E0,1.181924319E1
1.086687821E1,3.954202974E-1,-9.709293990E0,4.178324411E0,1.057757732E1
1.087681321E1,3.317956110E-1,-8.611827745E0,3.520198362E0,9.309428658E0
1.088674721E1,3.282407597E-1,-7.581626115E0,2.739045142E0,8.067909570E0
1.089668221E1,6.248474979E-1,-6.720264591E0,1.814655311E0,6.988945877E0
1.090661721E1,1.189678955E0,-6.295177276E0,1.105347999E0,6.501260427E0
1.091655121E1,1.999838677E0,-6.299609465E0,6.576807833E-1,6.642061288E0
1.092648621E1,2.672600892E0,-6.573431650E0,4.391419753E-1,7.109546038E0
1.093642021E1,3.175823380E0,-6.658173008E0,6.880550221E-1,7.408815132E0
1.094635521E1,3.181308069E0,-6.264428523E0,8.464134094E-1,7.076736635E0
1.095629021E1,1.991985574E0,-5.455773216E0,-1.313401580E-1,5.809536827E0
1.096622421E1,6.835465264E-1,-3.900532551E0,-1.272098018E0,4.159281597E0
1.097615921E1,-8.975790314E-2,-2.073471787E0,-2.156062831E0,2.992649105E0
1.098609321E1,8.296168439E-2,1.354974698E0,-2.687532049E0,3.010924707E0
1.099602821E1,1.320770387E0,7.338679567E0,-3.094583336E0,8.073233443E0
1.100596321E1,2.961442235E0,1.908350042E1,-2.861046712E0,1.952269748E1
1.101589721E1,3.595340346E0,3.887359476E1,-2.378085995E0,3.911186693E1
1.102583221E1,-1.689640379E0,5.193031036E1,-2.404211354E0,5.201338531E1
1.103576621E1,-6.818661536E0,3.545903131E1,-4.149821573E0,3.634636249E1
1.104570121E1,-9.302277640E-1,1.609954816E1,-6.553940542E0,1.740732350E1
1.105563521E1,-1.599659916E0,1.038551571E1,-7.383260493E0,1.284252249E1
1.106557021E1,-4.931709496E0,1.236968180E1,-8.430262928E0,1.576071443E1
1.107550521E1,-2.896969374E0,1.777501869E1,-8.776370147E0,2.003418064E1
1.108543921E1,7.566282436E-1,1.904522338E1,-8.311553925E0,2.079362759E1
1.109537421E1,2.268315631E0,1.691375189E1,-6.129664820E0,1.813265148E1
1.110530821E1,1.334147501E0,1.301572896E1,-2.750352488E0,1.336987617E1
1.111524321E1,-8.063857099E-1,9.288181027E0,5.773520270E-1,9.340979609E0
1.112517821E1,-2.031760382E0,5.719197882E0,3.037430896E0,6.786992052E0
1.113511221E1,-1.419293486E0,2.259196313E0,4.045766863E0,4.846296678E0
1.114504721E1,-3.097767144E-1,-1.026401525E0,3.838162348E0,3.985091205E0
1.115498121E1,4.623823187E-1,-3.901857530E0,2.840337336E0,4.848278640E0
1.116491621E1,1.204274702E0,-6.425294781E0,1.777090167E0,6.774418059E0
1.117485021E1,1.869880216E0,-8.769210817E0,5.289072606E-1,8.981940395E0
1.118478521E1,2.695169390E0,-1.062289629E1,-3.117991202E-1,1.096389905E1
1.119472021E1,3.461547866E0,-1.217851761E1,-2.872221033E-1,1.266416604E1
1.120465421E1,3.889041018E0,-1.389420412E1,2.316624449E-1,1.443008024E1
1.121458921E1,3.853764181E0,-1.564072650E1,1.083566682E0,1.614490448E1
1.122452321E1,4.039512973E0,-1.690683580E1,2.058469147E0,1.750417257E1
1.123445821E1,3.817645345E0,-1.779917938E1,2.775232683E0,1.841431832E1
1.124439321E1,3.219510560E0,-1.842866489E1,3.316521422E0,1.899948032E1
1.125432721E1,3.072091143E0,-1.838147319E1,3.926719306E0,1.904561432E1
1.126426221E1,2.740977062E0,-1.728458699E1,4.539275372E0,1.807968261E1
1.127419621E1,5.038044329E-1,-1.426580286E1,5.323831379E0,1.523516100E1
1.128413121E1,-1.091340117E0,-1.178084614E1,5.154705344E0,1.290543863E1
1.129406621E1,-1.510559313E0,-1.021519333E1,4.201091715E0,1.114814495E1
1.130400021E1,-1.952486756E0,-8.999256653E0,3.143154402E0,9.730274632E0
1.131393521E1,-2.305317104E0,-8.177889499E0,1.826673386E0,8.690747912E0
1.132386921E1,-2.471809553E0,-7.354140775E0,3.598522693E-1,7.766770413E0
1.133380421E1,-2.610217533E0,-6.808850493E0,-5.356724891E-1,7.311677346E0
1.134373921E1,-2.591713142E0,-6.807324954E0,-4.681865573E-1,7.299030668E0
1.135367321E1,-1.858730746E0,-7.038710972E0,1.533850381E-1,7.281611024E0
1.136360821E1,-3.640476465E-1,-7.611370316E0,9.416648448E-1,7.678035000E0
1.137354221E1,1.000591915E0,-8.238028112E0,1.094601401E0,8.370450620E0
1.138347721E1,2.188809285E0,-8.369388151E0,2.274499646E-1,8.653859115E0
1.139341221E1,3.315194397E0,-7.469709238E0,-1.608027866E0,8.329034974E0
1.140334621E1,3.618586536E0,-5.518842453E0,-2.867103550E0,7.195281323E0
1.141328121E1,2.745374168E0,-2.506114290E0,-2.503602034E0,4.481708525E0
1.142321521E1,2.224465314E0,1.024192446E0,-1.474031318E0,2.858318461E0
1.143315021E1,2.565109772E0,6.637212494E0,-1.692887922E0,7.314249610E0
1.144308421E1,2.879387088E0,1.925181019E1,-4.034356314E0,1.987961509E1
1.145301921E1,3.727227803E0,4.486508227E1,-2.234990594E0,4.507508200E1
1.146295421E1,-3.662508774E0,6.212905665E1,-6.774174750E-1,6.224060206E1
1.147288821E1,-7.489303842E0,4.124915943E1,-5.784821184E0,4.232076301E1
1.148282321E1,5.508497559E0,1.951655340E1,-1.231407829E1,2.372500635E1
1.149275721E1,8.282158803E0,1.122232945E1,-1.310051827E1,1.913526618E1
1.150269221E1,6.907822219E0,1.052936540E1,-1.108934973E1,1.677972649E1
1.151262721E1,3.448924604E0,1.417171414E1,-5.537126112E0,1.560103613E1
1.152256121E1,5.619550657E-2,1.496380370E1,-8.565934119E-1,1.498840657E1
1.153249621E1,-1.630020121E0,1.126362483E1,6.645129624E-1,1.140034154E1
1.154243021E1,-1.624835688E0,7.467062203E0,1.464886858E0,7.780938405E0
1.155236521E1,-1.615341271E0,4.682773061E0,1.798353566E0,5.269892457E0
1.156230021E1,-3.125813022E0,1.769063401E0,2.059557753E0,4.140298359E0
1.157223421E1,-4.878477615E0,-1.760955652E0,2.355210664E0,5.696272985E0
1.158216921E1,-4.724483881E0,-5.031653030E0,2.315122007E0,7.279977340E0
1.159210321E1,-2.541157238E0,-7.326684589E0,2.279776466E0,8.083017253E0
1.160203821E1,2.961816822E-1,-8.886137003E0,1.705353601E-1,8.892706941E0
1.161197221E1,6.823739404E-1,-1.060798355E1,-8.058616532E-1,1.066041098E1
1.162190721E1,1.196715056E0,-1.220735842E1,-2.014778021E-1,1.226753112E1
1.163184221E1,2.042181874E0,-1.397674459E1,4.298516268E-1,1.413169022E1
1.164177621E1,2.644372581E0,-1.592283127E1,8.498840243E-1,1.616327828E1
1.165171121E1,3.562579566E0,-1.738219573E1,1.631687163E0,1.781839231E1
1.166164521E1,3.384975068E0,-1.824505063E1,2.394441826E0,1.871024533E1
1.167158021E1,3.477009658E0,-1.871725539E1,2.986472411E0,1.927029484E1
1.168151521E1,4.373988619E0,-1.800595330E1,4.002329652E0,1.895691888E1
1.169144921E1,3.415211313E0,-1.453761185E1,5.707780609E0,1.598701304E1
1.170138421E1,1.982674468E0,-1.151146725E1,6.749237545E0,1.349062948E1
1.171131821E1,1.224548241E0,-1.014831990E1,6.652605289E0,1.219610890E1
1.172125321E1,5.233097211E-1,-9.214849341E0,5.625815510E0,1.080912122E1
1.173118821E1,-2.115656744E-1,-8.411490442E0,3.985013415E0,9.310116187E0
1.174112221E1,-8.440569815E-1,-7.655571758E0,2.340024422E0,8.049591631E0
1.175105721E1,-1.256568106E0,-6.866968308E0,1.012849725E0,7.054082627E0
1.176099121E1,-1.618924153E0,-6.590631235E0,2.849394965E-1,6.792534579E0
1.177092621E1,-1.797616232E0,-6.948110704E0,3.656486142E-1,7.186192691E0
1.178086121E1,-1.288484255E0,-7.315732169E0,1.284196199E0,7.538520327E0
1.179079521E1,-8.801813722E-1,-7.529402293E0,2.207711287E0,7.895606833E0
1.180073021E1,-5.161840117E-1,-7.573994914E0,2.587601964E0,8.020444427E0
1.181066421E1,-3.084955895E-1,-7.171375524E0,2.325891701E0,7.545433629E0
1.182059921E1,-4.277051139E-1,-5.995581733E0,3.088689342E-1,6.018748375E0
1.183053421E1,-2.090728236E-1,-3.994953974E0,-2.491098055E0,4.712636016E0
1.184046825E1,4.820079864E-1,-7.968035853E-1,-4.375524390E0,4.473526723E0
1.185040325E1,1.042849669E0,2.809407611E0,-5.727748851E0,6.464318483E0
1.186033725E1,1.426425627E0,8.108947903E0,-5.073029097E0,9.670850551E0
1.187027225E1,1.567190327E0,1.614737605E1,-4.709355380E0,1.689295317E1
1.188020725E1,1.639312516E0,2.821930359E1,-5.499595174E0,2.879690935E1
1.189014125E1,1.059967905E-1,3.742363730E1,-5.344115955E0,3.780343158E1
1.190007625E1,-1.715595584E0,3.121626825E1,-5.791814454E0,3.179534221E1
1.191001025E1,3.986462647E0,1.871049484E1,-8.070732840E0,2.076321820E1
1.191994525E1,6.298393829E0,1.422528633E1,-7.008079748E0,1.706287543E1
1.192987925E1,5.165566548E0,1.619733933E1,-5.525511788E0,1.787646944E1
1.193981425E1,3.604065853E0,1.936057307E1,-5.672211996E0,2.049378124E1
1.194974925E1,2.225804619E0,1.939404137E1,-5.694673491E0,2.033500315E1
1.195968325E1,1.106140589E0,1.720265580E1,-4.060287546E0,1.770990820E1
1.196961825E1,-6.629187921E-1,1.418349979E1,-1.918898010E0,1.432805979E1
1.197955225E1,-3.086583467E0,1.092781689E1,-7.138795424E-1,1.137777674E1
1.198948725E1,-4.876267075E0,7.749569843E0,-7.291477919E-2,9.156371000E0
1.199942225E1,-5.010818231E0,5.050550061E0,4.697860631E-1,7.130010814E0
1.200935625E1,-3.567148288E0,2.508546147E0,1.114906150E0,4.501151675E0
1.201929125E1,-1.318816979E0,6.283417940E-2,1.488808986E0,1.989919233E0
1.202922525E1,2.519281635E-1,-2.258253742E0,1.522813177E0,2.735349655E0
1.203916025E1,9.924180919E-1,-4.485465785E0,1.341807061E0,4.785890008E0
1.204909525E1,1.399467624E0,-6.705024408E0,9.497956905E-1,6.915054143E0
1.205902925E1,2.028280411E0,-8.858417693E0,3.165542221E-1,9.093167326E0
1.206896425E1,2.782768282E0,-1.077161671E1,-7.464423940E-2,1.112551562E1
1.207889825E1,3.070198107E0,-1.258414598E1,5.109443218E-3,1.295325722E1
1.208883325E1,2.531856949E0,-1.450983757E1,6.048617148E-1,1.474149055E1
1.209876825E1,1.506283683E0,-1.646494067E1,1.593738294E0,1.661033303E1
1.210870225E1,8.488246550E-1,-1.814986731E1,2.375670802E0,1.832435534E1
1.211863725E1,6.682728682E-1,-1.930746398E1,3.021052552E0,1.955381069E1
1.212857125E1,8.076412533E-1,-1.962488126E1,3.375173673E0,1.992937646E1
1.213850625E1,9.755732869E-1,-1.946490377E1,3.701925439E0,1.983780417E1
1.214844125E1,1.398893428E0,-1.948858500E1,4.083991281E0,1.996098276E1
1.215837525E1,1.640162848E0,-1.836982319E1,4.406956975E0,1.896211507E1
1.216831025E1,3.898105518E-1,-1.439967018E1,4.310902132E0,1.503616743E1
1.217824425E1,-2.575742349E-1,-1.058986888E1,3.760688202E0,1.124074922E1
1.218817925E1,4.822435561E-1,-8.059764048E0,2.983177213E0,8.607653667E0
1.219811425E1,9.114894113E-1,-6.069521529E0,1.926080145E0,6.432704662E0
1.220804825E1,1.046375906E0,-5.062909906E0,9.872859907E-1,5.263334768E0
1.221798325E1,1.107459136E0,-5.067018744E0,4.979912773E-1,5.210483663E0
1.222791725E1,1.357954440E0,-5.620538982E0,3.897639933E-1,5.795378735E0
1.223785225E1,1.607048458E0,-6.137407118E0,6.979987970E-1,6.382599251E0
1.224778725E1,1.683566583E0,-6.182645856E0,1.076432641E0,6.497554421E0
1.225772125E1,1.637342005E0,-5.847680506E0,1.260310031E0,6.201986578E0
1.226765625E1,1.490887671E0,-5.203191626E0,7.022067457E-1,5.457933992E0
1.227759025E1,1.163237481E0,-4.538415247E0,-2.720206583E-1,4.693008590E0
1.228752525E1,5.752490028E-1,-3.820309922E0,-1.512213636E0,4.148791317E0
1.229745925E1,1.616070273E-1,-2.009392151E0,-3.011721565E0,3.624119263E0
1.230739425E1,1.391989620E-1,7.588662654E-1,-4.346784448E0,4.414724159E0
1.231732925E1,6.002473846E-1,9.151144511E0,-5.102624195E0,1.049478520E1
1.232726325E1,1.319196171E0,2.628598957E1,-4.046621433E0,2.662834338E1
1.233719825E1,-7.126500556E-2,4.995777321E1,5.019977894E-1,4.996034612E1
1.234713225E1,-8.895773799E0,5.520775426E1,3.469538963E-1,5.592093793E1
1.235706725E1,-6.626640143E0,3.501002596E1,-6.214618431E0,3.616954188E1
1.236700225E1,5.319125540E0,1.779430982E1,-1.040052200E1,2.128617900E1
1.237693625E1,7.088074336E0,1.027455544E1,-9.922795129E0,1.594581921E1
1.238687125E1,5.911443808E0,9.830012680E0,-1.047233751E1,1.553203689E1
1.239680525E1,3.242790079E0,1.505915308E1,-1.148674873E1,1.921559719E1
1.240674025E1,3.757566959E0,1.742347005E1,-1.107063397E1,2.098226762E1
1.241667525E1,2.830388591E0,1.527757231E1,-6.650306164E0,1.690094339E1
1.242660925E1,-4.936637530E-1,1.138779396E1,-5.656333297E-1,1.141251490E1
1.243654425E1,-3.818758363E0,7.892740672E0,3.364951863E0,9.391547891E0
1.244647825E1,-4.634172466E0,4.884026037E0,4.947978204E0,8.355342787E0
1.245641325E1,-4.030788635E0,1.710649717E0,6.351858430E0,7.714900193E0
1.246634825E1,-2.123861630E0,-1.435035360E0,6.699318695E0,7.172934245E0
1.247628225E1,-4.459376094E-1,-4.099736663E0,5.143252988E0,6.592401107E0
1.248621725E1,-5.367851777E-1,-6.216000128E0,2.946025174E0,6.899700012E0
1.249615125E1,-6.888177913E-1,-7.996732818E0,1.244660543E0,8.122277118E0
1.250608625E1,-4.140753273E-1,-9.867980990E0,2.025074968E-1,9.878740633E0
1.251602125E1,6.211907224E-1,-1.179296507E1,-2.122325858E-1,1.181122118E1
1.252595525E1,1.496519710E0,-1.410313566E1,-2.703840226E-2,1.418233894E1
1.253589025E1,2.056392362E0,-1.651712824E1,1.710524002E-1,1.664552593E1
1.254582425E1,2.786018749E0,-1.882499151E1,6.360346833E-1,1.904066033E1
1.255575925E1,3.053265448E0,-2.036440669E1,8.825418931E-1,2.061092841E1
1.256569425E1,3.346737494E0,-2.092079031E1,1.343981056E0,2.122937597E1
1.257562825E1,4.156963947E0,-2.026732887E1,2.189717650E0,2.080480311E1
1.258556325E1,4.782440313E0,-1.864493352E1,3.656603086E0,1.959275446E1
1.259549725E1,3.387480308E0,-1.559017031E1,5.603653393E0,1.690944601E1
1.260543225E1,1.250292581E0,-1.267712372E1,6.266739342E0,1.419664465E1
1.261536725E1,7.325573033E-1,-1.057699097E1,6.056771675E0,1.221039972E1
1.262530125E1,4.856737521E-1,-8.708291600E0,5.595126983E0,1.036222310E1
1.263523625E1,3.734990859E-1,-6.677367078E0,4.781689239E0,8.221391892E0
1.264517025E1,1.208222230E-1,-4.799806252E0,3.629847689E0,6.019014230E0
1.265510525E1,-2.419776642E-1,-3.673232567E0,2.465869074E0,4.430767538E0
1.266503925E1,-3.503446966E-1,-3.713840311E0,1.769576494E0,4.128771273E0
1.267497425E1,-3.167954198E-1,-4.854478303E0,1.663993906E0,5.141516765E0
1.268490925E1,-2.091490567E-2,-6.303355776E0,2.179478298E0,6.669546996E0
1.269484325E1,3.622838339E-1,-7.118017927E0,2.600662305E0,7.586888243E0
1.270477825E1,7.827974573E-1,-7.473822169E0,1.703350053E0,7.705335235E0
1.271471325E1,1.344574841E0,-7.800579198E0,9.992859390E-1,7.978439052E0
1.272464725E1,1.856810812E0,-7.781009737E0,9.450176382E-1,8.055117457E0
1.273458225E1,1.668616422E0,-7.108364174E0,-4.235266936E-1,7.313856497E0
1.274451625E1,-9.709654251E-2,-5.020410004E0,-2.690025302E0,5.696505988E0
1.275445125E1,-1.375954801E0,-2.491102733E0,-4.021653822E0,4.926717356E0
1.276438625E1,-1.306037012E0,4.928220463E-1,-3.999902472E0,4.236487464E0
1.277432025E1,-1.305460476E0,5.926398062E0,-4.649455334E0,7.644858138E0
1.278425525E1,-1.054263215E0,1.856663813E1,-6.750133338E0,1.978372621E1
1.279418925E1,-1.621061602E0,4.356296348E1,-6.773219315E0,4.411616628E1
1.280412425E1,-7.608207557E0,6.159531345E1,-2.468131946E0,6.211247167E1
1.281405825E1,-9.484011880E0,4.231217388E1,-4.624605252E0,4.360795241E1
1.282399325E1,2.729097566E0,2.053211185E1,-1.072469866E1,2.332455255E1
1.283392825E1,7.542509412E0,1.165801952E1,-1.190111401E1,1.828757453E1
1.284386246E1,1.001268321E1,1.002272404E1,-1.143738069E1,1.820775931E1
1.285379746E1,1.260897559E1,1.383904500E1,-1.031091576E1,2.137335762E1
1.286373146E1,1.129581492E1,1.787064639E1,-7.013471466E0,2.227429503E1
1.287366646E1,3.957687914E0,1.629893237E1,-2.526194213E0,1.696172595E1
1.288360146E1,-8.753761303E-1,1.186182306E1,1.697269241E0,1.201456834E1
1.289353546E1,-4.408091627E0,8.991456467E0,4.416955421E0,1.094472733E1
1.290347046E1,-7.744522526E0,6.363195012E0,4.127770261E0,1.084003539E1
1.291340446E1,-7.640776548E0,2.765055311E0,4.060994474E0,9.083978933E0
1.292333946E1,-3.766654994E0,-8.345736748E-1,4.236554493E0,5.729973563E0
1.293327446E1,-5.217737306E-2,-3.431383542E0,3.455208314E0,4.869864473E0
1.294320846E1,9.723060089E-1,-5.546046624E0,2.328684039E0,6.093174992E0
1.295314346E1,1.532436524E0,-7.687285302E0,6.878971472E-1,7.868666945E0
1.296307746E1,2.186050861E0,-1.000500113E1,-8.590553820E-1,1.027700551E1
1.297301246E1,2.626865140E0,-1.233696897E1,-1.102883398E0,1.266165770E1
1.298294746E1,3.355877277E0,-1.476614910E1,-3.730889037E-1,1.514728580E1
1.299288146E1,3.446487485E0,-1.728280475E1,5.414593323E-1,1.763141498E1
1.300281646E1,2.706962054E0,-1.944170904E1,1.362314854E0,1.967647315E1
1.301275046E1,2.128605330E0,-2.095788504E1,1.858110941E0,2.114749352E1
1.302268546E1,2.636132977E0,-2.122233823E1,2.076932608E0,2.148605330E1
1.303262046E1,3.225454254E0,-2.032340367E1,2.528876331E0,2.073257117E1
1.304255446E1,2.208359012E0,-1.801635667E1,3.449106160E0,1.847599227E1
1.305248946E1,-1.373486106E-1,-1.458865804E1,4.144128432E0,1.516646328E1
1.306242346E1,-5.557089968E-1,-1.234175082E1,3.947079603E0,1.296946657E1
1.307235846E1,-6.879468486E-1,-1.066009277E1,3.794681575E0,1.133624528E1
1.308229346E1,-8.483508843E-1,-8.822302365E0,3.486820993E0,9.524213295E0
1.309222746E1,-1.145396456E0,-6.872437794E0,2.767625163E0,7.496804873E0
1.310216246E1,-1.047743423E0,-5.546962883E0,1.924284026E0,5.964011445E0
1.311209646E1,-5.700886157E-1,-5.022489274E0,1.072536056E0,5.167275213E0
1.312203146E1,-5.377369948E-2,-5.724517679E0,7.931943914E-1,5.779459457E0
1.313196646E1,9.504379340E-1,-7.109957541E0,1.194370688E0,7.271956397E0
1.314190046E1,1.825252512E0,-8.237166232E0,1.653571829E0,8.597485334E0
1.315183546E1,2.466957825E0,-8.749354257E0,1.714200146E0,9.250706079E0
1.316176946E1,2.908164453E0,-8.766899412E0,1.339286034E0,9.333254141E0
1.317170446E1,2.763964806E0,-8.553857279E0,-1.338173309E-1,8.990321623E0
1.318163946E1,2.402851000E0,-7.846392717E0,-2.508786467E0,8.581001173E0
1.319157346E1,2.469986975E0,-5.772411053E0,-3.687490126E0,7.281424892E0
1.320150846E1,2.745915328E0,-2.642419319E0,-3.554304586E0,5.211095080E0
1.321144246E1,2.572701797E0,1.983480799E-1,-2.840627650E0,3.837616701E0
1.322137746E1,2.187526698E0,4.391456006E0,-2.147991042E0,5.355746860E0
1.323131246E1,2.140556600E0,1.308129379E1,-2.218325153E0,1.343961295E1
1.324124646E1,3.090204356E0,3.205668622E1,-2.818024361E0,3.232834291E1
1.325118146E1,6.862825117E-1,5.365484137E1,-4.085727319E0,5.381455337E1
1.326111546E1,-8.000384989E0,4.506958045E1,-7.095949366E0,4.632089960E1
1.327105046E1,-2.536315451E0,2.103653945E1,-1.147146762E1,2.409488446E1
1.328098546E1,2.181066987E0,1.172502978E1,-1.214529256E1,1.702179509E1
1.329091946E1,8.743242162E-1,1.158931006E1,-1.311626248E1,1.752463672E1
1.330085446E1,-1.415511214E0,1.702621958E1,-1.292194196E1,2.142130736E1
1.331078846E1,-1.228644727E0,1.879216407E1,-9.882710127E0,2.126788560E1
1.332072346E1,-9.538159436E-1,1.625277796E1,-5.460234057E0,1.717197461E1
1.333065846E1,-2.115744233E0,1.313523436E1,-1.555533026E0,1.339516474E1
1.334059246E1,-3.214465290E0,1.007534197E1,1.168061141E0,1.064000328E1
1.335052746E1,-3.325177640E0,6.825707431E0,2.983949045E0,8.157882089E0
1.336046146E1,-2.385205564E0,3.628933477E0,3.813914237E0,5.779645800E0
1.337039646E1,-2.558371002E-1,7.664530277E-1,3.746288557E0,3.832437973E0
1.338033146E1,1.565506768E0,-1.299710324E0,3.529703888E0,4.074170824E0
1.339026546E1,2.627929918E0,-3.292770617E0,3.301508696E0,5.352411948E0
1.340020046E1,3.520024700E0,-5.505092726E0,3.138267299E0,7.248816555E0
1.341013446E1,4.230956076E0,-7.956977599E0,2.680683790E0,9.402156530E0
1.342006946E1,4.909119948E0,-1.020996475E1,2.003241757E0,1.150459980E1
1.343000446E1,5.207701584E0,-1.225770411E1,1.287561564E0,1.338018239E1
1.343993846E1,4.493422092E0,-1.405157842E1,9.766557527E-1,1.478484206E1
1.344987346E1,2.918894386E0,-1.565771851E1,1.296552536E0,1.598014837E1
1.345980746E1,1.143326980E0,-1.709180896E1,1.652985792E0,1.720957560E1
1.346974246E1,7.518205167E-1,-1.830571198E1,2.082575025E0,1.843912807E1
1.347967746E1,7.472636354E-1,-1.903143331E1,2.678450446E0,1.923351121E1
1.348961146E1,6.398938456E-1,-1.889272799E1,3.434117115E0,1.921295905E1
1.349954646E1,3.214534579E-1,-1.661490772E1,4.353903725E0,1.717891057E1
1.350948046E1,4.749472542E-1,-1.336686362E1,4.485078992E0,1.410725173E1
1.351941546E1,4.951372513E-1,-1.167184468E1,4.157704205E0,1.240014610E1
1.352935046E1,3.166623956E-1,-1.069324064E1,3.810586002E0,1.135633022E1
1.353928446E1,1.544770056E-1,-9.754249138E0,3.082813475E0,1.023098130E1
1.354921946E1,1.017856988E-1,-8.857415480E0,2.162160015E0,9.118064775E0
1.355915346E1,1.791259432E-1,-7.990550557E0,1.157167486E0,8.075891337E0
1.356908846E1,2.388893842E-1,-7.540844125E0,7.415435967E-1,7.580981807E0
1.357902346E1,4.008578425E-1,-7.417729830E0,9.858718416E-1,7.493687085E0
1.358895746E1,7.130892912E-1,-7.457086269E0,1.613566056E0,7.662912460E0
1.359889246E1,1.114968350E0,-7.717406648E0,2.250653823E0,8.115846378E0
1.360882646E1,1.414713069E0,-7.995431228E0,2.576195508E0,8.518516120E0
1.361876146E1,1.735094879E0,-7.920579266E0,2.696539100E0,8.545025059E0
1.362869646E1,1.983137275E0,-7.469776481E0,2.516539875E0,8.127937443E0
1.363863046E1,1.902288117E0,-6.645561733E0,1.681080640E0,7.113945667E0
1.364856546E1,1.753334537E0,-5.281561857E0,2.974461061E-1,5.572930274E0
1.365849946E1,1.827134731E0,-3.263076702E0,-1.119257356E0,3.903694137E0
1.366843446E1,2.114238575E0,-1.450060950E0,-2.577428978E0,3.635357155E0
1.367836946E1,2.185150098E0,7.737275487E-1,-4.368204553E0,4.945174040E0
1.368830346E1,1.264316251E0,6.118344610E0,-6.191178113E0,8.795642261E0
1.369823846E1,2.665865484E-1,2.089165246E1,-7.878255365E0,2.232933314E1
1.370817246E1,1.067733829E-1,4.832511366E1,-3.674857801E0,4.846475617E1
1.371810746E1,-5.163306599E0,5.814003468E1,7.428560042E-1,5.837358308E1
1.372804246E1,-7.434058764E0,3.021758954E1,-4.778560101E0,3.148336996E1
1.373797646E1,-2.306492102E0,1.285544041E1,-7.937892287E0,1.528372952E1
1.374791146E1,-1.688587880E0,8.205072035E0,-1.026668859E1,1.325063888E1
1.375784546E1,-1.688182083E0,1.091675162E1,-1.253112576E1,1.670492555E1
1.376778046E1,-1.556034534E-1,1.714668040E1,-1.165059824E1,2.073087795E1
1.377771546E1,2.818705561E0,1.905572030E1,-9.234133458E0,2.136199424E1
1.378764946E1,4.233121300E0,1.732116249E1,-6.615321688E0,1.901852957E1
1.379758446E1,2.778927246E0,1.391763859E1,-2.968299557E0,1.449944491E1
1.380751846E1,2.496442776E-1,1.016693860E1,1.697800460E-1,1.017142016E1
1.381745346E1,-1.559606781E0,6.800907050E0,2.336886513E0,7.358379482E0
1.382738846E1,-1.948229690E0,4.045184480E0,3.714193775E0,5.827036279E0
1.383732221E1,-8.409439970E-1,1.503742483E0,3.860506898E0,4.227521942E0
1.384725721E1,4.221259931E-1,-9.845646966E-1,3.138061477E0,3.315869091E0
1.385719121E1,6.231844767E-1,-3.294773873E0,2.504109572E0,4.185027899E0
1.386712621E1,8.031998545E-1,-5.264892615E0,2.325728856E0,5.811474767E0
1.387706121E1,1.124864470E0,-7.278027568E0,1.493419516E0,7.514340105E0
1.388699521E1,1.362529155E0,-9.317361556E0,2.624987599E-1,9.420117710E0
1.389693021E1,1.901520670E0,-1.094645548E1,-2.217720258E-1,1.111259876E1
1.390686421E1,2.341219739E0,-1.230630500E1,3.017259756E-1,1.253066204E1
1.391679921E1,2.847208107E0,-1.353336893E1,1.429887764E0,1.390335383E1
1.392673421E1,3.433112856E0,-1.463079776E1,2.628575451E0,1.525634018E1
1.393666821E1,3.353605633E0,-1.584765830E1,3.363242722E0,1.654407283E1
1.394660321E1,3.131749408E0,-1.696607979E1,4.453535602E0,1.781824058E1
1.395653721E1,2.773602186E0,-1.714089049E1,5.665112307E0,1.826462410E1
1.396647221E1,2.472940112E0,-1.621602236E1,6.587377260E0,1.767677440E1
1.397640721E1,1.993218021E0,-1.424532825E1,7.023295957E0,1.600715406E1
1.398634121E1,1.941193151E0,-1.227402837E1,6.295016477E0,1.393008384E1
1.399627621E1,1.289038279E0,-1.099540603E1,4.930618991E0,1.211905842E1
1.400621021E1,6.905073443E-1,-1.017316121E1,3.790907782E0,1.087846456E1
1.401614521E1,3.856053074E-1,-9.518916834E0,3.010641585E0,9.991117650E0
1.402608021E1,-1.386493968E-1,-8.986451835E0,2.283495879E0,9.273073583E0
1.403601421E1,-6.955682556E-1,-8.584075105E0,1.818070377E0,8.802019115E0
1.404594921E1,-1.112355887E0,-8.184486912E0,1.932386659E0,8.482763691E0
1.405588321E1,-9.927242667E-1,-7.612598231E0,2.297739112E0,8.013535944E0
1.406581821E1,-4.539137962E-1,-7.021038932E0,2.544673169E0,7.481736894E0
1.407575321E1,3.354258914E-1,-6.646464543E0,2.711796240E0,7.186225734E0
1.408568721E1,1.917669510E0,-6.437110834E0,2.702929230E0,7.240143553E0
1.409562221E1,4.144793553E0,-5.991048971E0,2.626061440E0,7.743912452E0
1.410555621E1,5.700153501E0,-5.354592412E0,1.585826865E0,7.979865705E0
1.411549121E1,5.224822816E0,-4.555240025E0,-1.044709741E0,7.010021654E0
1.412542621E1,3.800919093E0,-2.865240335E0,-3.644692892E0,5.995029141E0
1.413536021E1,2.051823933E0,-5.062840909E-1,-5.766736915E0,6.141787987E0
1.414529521E1,-1.630224189E-1,2.912684643E0,-7.586564673E0,8.128116121E0
1.415522921E1,-2.619097699E0,9.404738839E0,-8.434710320E0,1.290167135E1
1.416516421E1,-4.946115282E0,2.436379460E1,-1.014777026E1,2.685210951E1
1.417509921E1,-3.332794223E0,4.492023788E1,-1.131419857E1,4.644293679E1
1.418503321E1,-8.385705391E-1,4.795984044E1,-7.311657829E0,4.852123077E1
1.419496821E1,-1.284826822E0,2.565899497E1,-5.218015487E0,2.621569165E1
1.420490221E1,-1.816387256E0,1.403234927E1,-5.651019348E0,1.523614480E1
1.421483721E1,3.964198789E-1,1.380146728E1,-7.184614205E0,1.556458573E1
1.422477221E1,2.114459892E0,1.718685194E1,-9.172639461E0,1.959581933E1
1.423470621E1,6.605848029E-1,1.832436577E1,-9.431422023E0,2.061966233E1
1.424464121E1,-2.008189671E0,1.668209222E1,-7.547946153E0,1.842000320E1
1.425457521E1,-2.873796858E0,1.411402551E1,-4.848204533E0,1.519768113E1
1.426451021E1,-3.434885147E0,1.098126045E1,-1.980202558E0,1.167508968E1
1.427444521E1,-3.954487441E0,7.190547960E0,1.437920961E-1,8.207473853E0
1.428437921E1,-4.260133390E0,3.765191143E0,1.568275278E0,5.897871497E0
1.429431421E1,-3.195366237E0,9.740069640E-1,1.405292913E0,3.624072726E0
1.430424821E1,-1.098247433E0,-1.422878999E0,7.276193297E-1,1.939113704E0
1.431418321E1,9.658884705E-1,-3.819207721E0,2.525788124E-1,3.947541540E0
1.432411821E1,1.859853996E0,-6.132005460E0,5.743545981E-1,6.433539543E0
1.433405221E1,2.416468142E0,-7.963742242E0,1.494097793E0,8.455343695E0
1.434398721E1,3.464550411E0,-9.379022200E0,2.019669217E0,1.020040346E1
1.435392221E1,4.353580959E0,-1.063187177E1,2.280284296E0,1.171281610E1
1.436385621E1,4.617267873E0,-1.232979327E1,2.811274627E0,1.346277199E1
1.437379121E1,4.737801792E0,-1.406948844E1,3.638698035E0,1.528520181E1
1.438372521E1,4.605342185E0,-1.549980159E1,4.540973403E0,1.679504288E1
1.439366021E1,4.068056449E0,-1.708498175E1,5.453839542E0,1.838994428E1
1.440359521E1,3.898443341E0,-1.844051252E1,6.132791326E0,1.982073389E1
1.441352921E1,3.889367293E0,-1.886129336E1,6.251354148E0,2.024734536E1
1.442346421E1,3.770207469E0,-1.782265712E1,6.009508631E0,1.918269442E1
1.443339821E1,2.031311169E0,-1.419960770E1,5.699614388E0,1.543504740E1
1.444333321E1,1.410471499E0,-1.134060225E1,4.704616504E0,1.235848315E1
1.445326821E1,1.024790763E0,-9.970445259E0,3.494928450E0,1.061482452E1
1.446320221E1,9.305049220E-1,-9.058167935E0,2.344434392E0,9.402798433E0
1.447313721E1,5.358060980E-1,-8.274001937E0,1.524891862E0,8.430390941E0
1.448307121E1,1.176890291E-1,-7.694586135E0,8.550129095E-1,7.742838858E0
1.449300621E1,-4.169623900E-1,-7.377515604E0,1.036422190E0,7.461619467E0
1.450294121E1,-6.579047316E-1,-7.294952919E0,1.892135596E0,7.565008515E0
1.451287521E1,-5.735724599E-1,-7.147029473E0,2.594630317E0,7.625032599E0
1.452281021E1,-4.386086727E-1,-7.250966654E0,2.951019866E0,7.840753359E0
1.453274421E1,-1.392113508E-1,-7.550310767E0,2.944348193E0,8.105292021E0
1.454267921E1,3.210115911E-1,-7.697070617E0,2.579241031E0,8.124064797E0
1.455261421E1,4.500315740E-1,-7.667983058E0,2.280659980E0,8.012608972E0
1.456254821E1,2.759435918E-1,-7.382418494E0,1.862863850E0,7.618825987E0
1.457248321E1,2.191975150E-1,-6.481016992E0,1.398226260E0,6.633751991E0
1.458241721E1,7.586113268E-1,-5.092430159E0,4.689735925E-1,5.169939293E0
1.459235221E1,1.355618477E0,-3.370305866E0,-8.514542940E-1,3.731171063E0
1.460228721E1,1.665710649E0,-1.175464593E0,-2.733230963E0,3.409818246E0
1.461222121E1,2.441051736E0,1.947776531E0,-5.029819343E0,5.920443363E0
1.462215621E1,1.796460530E0,6.768715789E0,-7.899662021E0,1.055686715E1
1.463209021E1,5.970953699E-1,1.795431537E1,-9.677154769E0,2.040493293E1
1.464202521E1,-1.631753967E-1,3.639412272E1,-9.253568434E0,3.755246095E1
1.465196021E1,-2.866882818E0,4.879846214E1,-5.480748428E0,4.918889638E1
1.466189421E1,-7.167616349E0,3.465914157E1,-2.705979137E0,3.549581865E1
1.467182921E1,-3.184545380E0,1.717793611E1,-4.828245939E0,1.812552833E1
1.468176321E1,-8.181076232E-1,1.321673519E1,-8.376399547E0,1.566893291E1
1.469169821E1,9.330492648E-1,1.578495159E1,-1.177661743E1,1.971608469E1
1.470163321E1,2.348887631E0,1.790897255E1,-1.302216909E1,2.226713854E1
1.471156721E1,4.481675912E0,1.717787413E1,-1.183864703E1,2.133818976E1
1.472150221E1,3.843459048E0,1.526554108E1,-7.615617149E0,1.748732531E1
1.473143621E1,4.478522801E-1,1.300634301E1,-2.709873091E0,1.329319158E1
1.474137121E1,-1.560081575E0,1.062561057E1,2.478965083E-1,1.074238834E1
1.475130621E1,-1.852038023E0,8.152586258E0,1.532150888E0,8.499540804E0
1.476124021E1,-7.827512643E-1,5.584759870E0,2.278030487E0,6.082077379E0
1.477117521E1,-9.920503020E-2,3.005824356E0,2.737066444E0,4.066491660E0
1.478110921E1,2.840951586E-1,5.341332096E-1,2.476105210E0,2.548942007E0
1.479104421E1,2.694759135E-1,-1.987656881E0,2.318960997E0,3.066101311E0
1.480097921E1,4.322107225E-1,-4.498625529E0,2.340748307E0,5.089552082E0
1.481091321E1,5.184264554E-1,-6.965790346E0,2.215696245E0,7.328049603E0
1.482084821E1,9.050554276E-1,-9.227572297E0,2.323061357E0,9.558442859E0
1.483078321E1,1.298059948E0,-1.102269148E1,2.389724000E0,1.135321399E1
1.484071733E1,1.770108591E0,-1.223210033E1,2.513507217E0,1.261250496E1
1.485065233E1,1.798153299E0,-1.333168794E1,2.869604404E0,1.375506772E1
1.486058633E1,1.926234511E0,-1.459625942E1,3.511022034E0,1.513566795E1
1.487052133E1,1.813360445E0,-1.584904643E1,4.135955486E0,1.647988703E1
1.488045633E1,1.873004968E0,-1.726020176E1,4.454105414E0,1.792377659E1
1.489039033E1,2.046412919E0,-1.848592902E1,4.815903636E0,1.921224363E1
1.490032533E1,1.670855321E0,-1.838813901E1,5.572649117E0,1.928651944E1
1.491025933E1,1.686654206E0,-1.735026057E1,6.206520038E0,1.850397891E1
1.492019433E1,1.570834897E0,-1.481210471E1,6.316911961E0,1.617928753E1
1.493012933E1,1.606019348E0,-1.243508525E1,5.035080083E0,1.351157558E1
1.494006333E1,1.850700764E0,-1.086416878E1,3.533392020E0,1.157325001E1
1.494999833E1,1.534512432E0,-9.657442635E0,2.617923870E0,1.012296656E1
1.495993233E1,1.026702437E0,-8.799315791E0,2.031192032E0,9.088884275E0
1.496986733E1,7.071061277E-1,-8.066676042E0,1.658239954E0,8.265653101E0
1.497980233E1,4.982445348E-1,-7.519737430E0,1.594483376E0,7.703056268E0
1.498973633E1,3.098699775E-1,-7.070866565E0,1.581888181E0,7.252278511E0
1.499967133E1,-9.763139829E-2,-6.749125278E0,1.822384453E0,6.991516931E0
1.500960533E1,-1.187225244E-1,-6.397465543E0,2.327783276E0,6.808835097E0
1.501954033E1,1.199416689E-1,-6.083474740E0,2.774467867E0,6.687355446E0
1.502947533E1,3.759818868E-1,-5.989577812E0,3.049745424E0,6.731816389E0
1.503940933E1,4.668902661E-1,-5.777201677E0,2.935889610E0,6.497191204E0
1.504934433E1,2.293881338E-1,-5.124733686E0,1.694156768E0,5.402377387E0
1.505927833E1,1.201968268E-1,-3.576910214E0,-1.790206933E-1,3.583403741E0
1.506921333E1,1.016208951E0,-1.484045552E0,-2.488497506E0,3.070454636E0
1.507914833E1,2.063692026E0,7.831737256E-1,-6.190285243E0,6.572048178E0
1.508908233E1,2.362632388E0,5.490471178E0,-8.388072928E0,1.029985791E1
1.509901733E1,2.453352816E0,1.860798496E1,-1.008679082E1,2.130773084E1
1.510895133E1,5.669263245E0,4.484967836E1,-1.122801178E1,4.658006487E1
1.511888633E1,8.611099766E0,6.034283986E1,-4.371147749E0,6.111068887E1
1.512882133E1,3.867138225E0,3.591203382E1,-1.014638973E0,3.613389577E1
1.513875533E1,-4.078579098E-2,1.574723588E1,-3.761609724E0,1.619033072E1
1.514869033E1,-2.134436904E0,1.097445896E1,-5.765001462E0,1.257894321E1
1.515862533E1,-4.318874226E0,1.305025794E1,-8.043746771E0,1.592682545E1
1.516855933E1,-3.921575218E0,1.611683955E1,-9.845511310E0,1.928899588E1
1.517849433E1,-1.247017263E0,1.579552335E1,-1.155449340E1,1.961019959E1
1.518842833E1,9.962904105E-1,1.333813274E1,-1.147876026E1,1.762555862E1
1.519836333E1,2.317858796E0,1.061464704E1,-8.712582872E0,1.392667590E1
1.520829833E1,2.193772402E0,7.474949512E0,-1.714228213E0,7.976596137E0
1.521823233E1,1.712462938E0,3.906128336E0,3.186140500E0,5.323707278E0
1.522816733E1,1.351127231E0,1.303721514E0,5.672873901E0,5.975511098E0
1.523810133E1,1.333392041E0,-9.390335977E-1,6.571323144E0,6.770672515E0
1.524803633E1,1.535461873E0,-3.390978112E0,5.467374676E0,6.614269542E0
1.525797133E1,1.136620151E0,-5.955403760E0,3.619394037E0,7.061073042E0
1.526790533E1,5.518271765E-1,-8.266839682E0,2.093644681E0,8.545671397E0
1.527784033E1,3.633209107E-1,-1.025171153E1,1.029093729E0,1.030963750E1
1.528777433E1,5.296505879E-1,-1.189772613E1,6.148455432E-1,1.192537009E1
1.529770933E1,2.278048906E-1,-1.351566824E1,5.465369081E-1,1.352863207E1
1.530764433E1,-2.742171648E-1,-1.523811179E1,9.051150692E-1,1.526743198E1
1.531757833E1,-3.832047330E-1,-1.668741787E1,2.026485024E0,1.681438082E1
1.532751333E1,4.641594337E-1,-1.764827210E1,3.558208772E0,1.800938094E1
1.533744733E1,1.503826683E0,-1.781257419E1,4.356210744E0,1.839907242E1
1.534738233E1,2.185219387E0,-1.655237057E1,4.878843066E0,1.739423080E1
1.535731733E1,1.870121414E0,-1.426071578E1,5.120738869E0,1.526719802E1
1.536725133E1,1.722305557E0,-1.196036852E1,4.827281148E0,1.301227862E1
1.537718633E1,1.637550312E0,-1.043418793E1,4.585601985E0,1.151440812E1
1.538712033E1,1.540829764E0,-9.607671720E0,4.296400453E0,1.063675557E1
1.539705533E1,1.282227150E0,-8.988424101E0,3.827916857E0,9.853366011E0
1.540699033E1,8.309668198E-1,-8.434396325E0,3.148716273E0,9.041236718E0
1.541692433E1,6.021009520E-1,-8.093800691E0,2.560846567E0,8.510585780E0
1.542685933E1,6.033326679E-1,-7.922348633E0,2.326630497E0,8.278938800E0
1.543679433E1,6.882230564E-1,-7.853379555E0,2.520587026E0,8.276628563E0
1.544672833E1,6.811272410E-1,-7.835440882E0,2.889855651E0,8.379101015E0
1.545666333E1,7.224954146E-1,-7.868091150E0,2.666275374E0,8.338937722E0
1.546659733E1,9.587238771E-1,-7.897036037E0,1.684257140E0,8.131362232E0
1.547653233E1,9.969462488E-1,-7.766516828E0,2.080094343E-1,7.833004110E0
1.548646733E1,1.187206972E0,-7.396096886E0,-8.151296362E-1,7.534994749E0
1.549640133E1,1.071830882E0,-6.466435790E0,-6.044228813E-1,6.582472202E0
1.550633633E1,5.123622715E-1,-4.438452417E0,6.578187776E-1,4.516093500E0
1.551627033E1,4.430394369E-1,-1.346791520E0,1.441258844E0,2.021721642E0
1.552620533E1,8.024487796E-1,2.696556934E0,4.067954707E-1,2.842679352E0
1.553614033E1,1.111681703E0,8.815043047E0,-2.475342733E0,9.223239224E0
1.554607433E1,2.642821242E-1,2.188531893E1,-6.521421837E0,2.283781891E1
1.555600933E1,-1.227202219E0,4.398807009E1,-7.758258805E0,4.468385519E1
1.556594333E1,-4.640356481E0,5.093249938E1,-6.968559587E0,5.161601713E1
1.557587833E1,-3.531912089E0,2.707733770E1,-9.312104909E0,2.885085645E1
1.558581333E1,1.412170992E0,1.357462689E1,-1.129047173E1,1.771269245E1
1.559574733E1,2.630507371E0,1.065504896E1,-1.233592700E1,1.651135162E1
1.560568233E1,3.404189896E0,1.303827817E1,-1.320804857E1,1.886896270E1
1.561561633E1,6.570462434E0,1.608184630E1,-1.415107815E1,2.240646714E1
1.562555133E1,8.273679755E0,1.603090419E1,-1.087147079E1,2.106258633E1
1.563548633E1,4.148723759E0,1.367231398E1,-4.508544745E0,1.498235810E1
1.564542033E1,-1.972454412E0,1.154942387E1,2.437031776E-2,1.171667026E1
1.565535533E1,-3.935997668E0,8.691932845E0,2.487313153E0,9.860451356E0
1.566529033E1,-3.627540962E0,5.221266539E0,3.673176434E0,7.342540624E0
1.567522433E1,-2.428230254E0,2.265069256E0,3.765670030E0,5.020668450E0
1.568515933E1,-5.165757021E-1,-3.847666705E-1,3.257218669E0,3.320296568E0
1.569509333E1,2.326016539E-1,-3.090523614E0,2.554073153E0,4.016058939E0
1.570502833E1,1.199552637E-1,-5.830801349E0,2.167541500E0,6.221805991E0
1.571496333E1,2.341023418E-1,-8.316343380E0,1.696161486E0,8.490779405E0
1.572489733E1,6.419813747E-1,-1.060701058E1,1.652701763E0,1.075417298E1
1.573483233E1,1.905006780E0,-1.227336880E1,1.626074713E0,1.252632235E1
1.574476633E1,2.590476455E0,-1.369618231E1,1.967581050E0,1.407719267E1
1.575470133E1,2.783378731E0,-1.518933783E1,2.715124767E0,1.567912891E1
1.576463633E1,3.256978348E0,-1.658983953E1,3.474900275E0,1.725994251E1
1.577457033E1,3.182765195E0,-1.762114102E1,3.436893665E0,1.823312489E1
1.578450533E1,2.899846496E0,-1.723405769E1,3.665049097E0,1.785649571E1
1.579443933E1,2.308536288E0,-1.407483046E1,4.680984982E0,1.501138943E1
1.580437433E1,2.077774461E0,-1.129911743E1,5.495268234E0,1.273519432E1
1.581430933E1,1.167890256E0,-9.774720824E0,5.764419079E0,1.140778954E1
1.582424333E1,3.729479127E-1,-8.973618951E0,5.323336705E0,1.044044256E1
1.583417833E1,-1.702674115E-1,-8.774738774E0,4.447554778E0,9.838992583E0
1.584411338E1,-1.090581002E0,-8.485268855E0,3.486028403E0,9.238048955E0
1.585404738E1,-1.811730534E0,-7.998542531E0,3.166074025E0,8.791079279E0
1.586398238E1,-2.415124013E0,-7.846144211E0,3.454968871E0,8.906829563E0
1.587391638E1,-2.510882986E0,-7.845108669E0,3.748835604E0,9.050084628E0
1.588385138E1,-2.382264415E0,-7.593945614E0,3.839252561E0,8.836461620E0
1.589378638E1,-1.542520047E0,-7.510311134E0,3.839862718E0,8.574887003E0
1.590372038E1,1.523896227E-1,-7.619938826E0,3.585115612E0,8.422573494E0
1.591365538E1,8.613971188E-1,-8.194709015E0,3.679787588E0,9.024195118E0
1.592358938E1,1.349021941E0,-8.910426337E0,3.764756403E0,9.766726600E0
1.593352438E1,1.711195554E0,-9.332926844E0,3.270675159E0,1.003638529E1
1.594345938E1,1.669086539E0,-9.170958971E0,1.387523517E0,9.424306862E0
1.595339338E1,2.201545106E0,-8.077228512E0,-1.723041136E0,8.547355851E0
1.596332838E1,3.295028519E0,-6.099383844E0,-4.376491227E0,8.198376161E0
1.597326238E1,2.972681168E0,-2.993716527E0,-5.690096875E0,7.083528387E0
1.598319738E1,1.662109933E0,8.041617215E-1,-5.665360229E0,5.958656898E0
1.599313238E1,7.718961277E-1,7.478016377E0,-6.035826364E0,9.640941472E0
1.600306638E1,-5.068826996E-2,2.358608685E1,-6.792774158E0,2.454481296E1
1.601300138E1,1.672487718E0,5.115573205E1,-5.168219429E0,5.144333415E1
1.602293538E1,-3.787154601E-1,5.570784089E1,-3.087158541E0,5.579460108E1
1.603287038E1,-3.654678183E0,2.728809942E1,-5.441193184E0,2.806427668E1
1.604280538E1,-3.061079959E0,1.506125808E1,-6.985550426E0,1.688222794E1
1.605273938E1,-3.765211901E0,1.518538979E1,-7.352070860E0,1.728657947E1
1.606267438E1,-1.230663186E0,1.880230665E1,-7.493203935E0,2.027780492E1
1.607260937E1,8.154734525E-1,1.814052463E1,-7.894795384E0,1.980079355E1
1.608254338E1,-6.919346496E-1,1.510442924E1,-6.571512594E0,1.648658042E1
1.609247838E1,-2.006530816E0,1.276159026E1,-4.261046725E0,1.360297288E1
1.610241238E1,-3.182742391E0,1.084194702E1,-2.301426951E0,1.153144529E1
1.611234738E1,-3.278860383E0,8.870972834E0,-4.802125257E-1,9.469724838E0
1.612228237E1,-2.886870647E0,6.317138248E0,8.174085885E-1,6.993455125E0
1.613221638E1,-2.247705365E0,3.224271070E0,1.285298400E0,4.135226151E0
1.614215138E1,-1.128637751E0,1.943702191E-1,1.242488303E0,1.689787010E0
1.615208538E1,-1.564317298E-1,-2.704238421E0,1.116708262E0,2.929917007E0
1.616202038E1,5.181679720E-1,-5.221063641E0,1.156484531E0,5.372658565E0
1.617195538E1,1.094480949E0,-7.457318988E0,1.286659047E0,7.646240026E0
1.618188938E1,2.306179860E0,-9.352129685E0,1.456071595E0,9.741711333E0
1.619182438E1,3.881181775E0,-1.067974526E1,1.721294281E0,1.149275358E1
1.620175838E1,4.962043097E0,-1.166795745E1,2.170173039E0,1.286362133E1
1.621169338E1,5.496978545E0,-1.254692143E1,2.749658423E0,1.397149355E1
1.622162838E1,5.625622551E0,-1.370134424E1,3.348989257E0,1.518519648E1
1.623156238E1,5.064127881E0,-1.520249640E1,3.526542299E0,1.640724805E1
1.624149738E1,4.758473161E0,-1.650003799E1,3.911877903E0,1.761241350E1
1.625143237E1,4.679742449E0,-1.723301220E1,4.445582804E0,1.840217122E1
1.626136638E1,4.579051934E0,-1.759741653E1,4.557316079E0,1.874582394E1
1.627130138E1,4.442758307E0,-1.764795519E1,4.204206526E0,1.867789539E1
1.628123538E1,3.019336102E0,-1.616347343E1,4.300935553E0,1.699624401E1
1.629117038E1,-6.290075726E-1,-1.324029362E1,4.640455299E0,1.404403258E1
1.630110537E1,-1.074706469E0,-1.165856682E1,4.273681096E0,1.246360800E1
1.631103938E1,-8.723770203E-1,-1.047302280E1,3.669137470E0,1.113138886E1
1.632097438E1,-1.175536514E0,-9.179585953E0,2.947233209E0,9.712510898E0
1.633090838E1,-1.368925570E0,-7.974439139E0,2.092274094E0,8.357227272E0
1.634084338E1,-1.320194583E0,-7.077504909E0,1.359790758E0,7.326869753E0
1.635077837E1,-1.010736541E0,-6.547231447E0,9.279697886E-1,6.689466040E0
1.636071238E1,-4.542564431E-1,-6.511760482E0,1.077227570E0,6.615874298E0
1.637064738E1,1.705863771E-1,-7.014219909E0,1.497985022E0,7.174422609E0
1.638058238E1,5.129510862E-1,-7.404705157E0,1.420291898E0,7.557116272E0
1.639051638E1,9.254636720E-1,-7.208403018E0,7.111480156E-1,7.302279683E0
1.640045137E1,7.339258441E-1,-6.441834800E0,-1.639632359E-1,6.485581445E0
1.641038538E1,2.720133310E-1,-5.133079417E0,-5.307807085E-1,5.167612961E0
1.642032038E1,2.430289936E-1,-3.462348642E0,-6.704394078E-1,3.535026196E0
1.643025538E1,7.438938850E-1,7.243238389E-2,-4.448678613E-2,7.487346904E-1
1.644018938E1,1.001373468E0,4.760519394E0,-3.702319542E-1,4.878766794E0
1.645012437E1,1.647889212E0,1.247771028E1,-3.706768396E0,1.312055352E1
1.646005838E1,2.595255969E0,2.975237571E1,-6.762199652E0,3.062134155E1
1.646999338E1,-1.479125705E0,5.249727043E1,-5.595250944E0,5.281532020E1
1.647992838E1,-1.235661678E1,4.856776843E1,-4.309151183E0,5.029992935E1
1.648986238E1,-7.130835609E0,2.492891630E1,-8.689843050E0,2.734617079E1
1.649979737E1,1.662997833E0,1.224038934E1,-1.019088763E1,1.601395902E1
1.650973138E1,9.584273502E-1,8.499162424E0,-9.489066213E0,1.277484726E1
