"Time (s)","Linear Acceleration x (m/s^2)","Linear Acceleration y (m/s^2)","Linear Acceleration z (m/s^2)","Absolute acceleration (m/s^2)"
4.672916664E-3,-3.921683684E-1,-1.161265799E-1,-7.017530018E-1,8.122429977E-1
1.471391667E-2,-3.445749566E-1,1.290509731E-2,6.870302975E-2,3.515942954E-1
2.475591666E-2,-3.233884478E-1,1.263524830E-2,1.929008138E-1,3.767631373E-1
3.479791665E-2,-1.548412871E-1,-4.065598279E-2,1.116625232E-1,1.951851742E-1
4.483891666E-2,1.907513773E-1,-5.575945777E-1,-5.402599221E-1,7.994864505E-1
5.488091666E-2,-1.889697307E-1,6.893440408E-1,3.831259418E-1,8.109810435E-1
6.492191667E-2,-3.900911450E-1,6.198469591E-1,1.068497969E0,1.295403128E0
7.496391666E-2,-7.123662829E-2,-2.140197873E-2,1.034354907E-1,1.274033070E-1
8.500591666E-2,9.290377825E-2,1.532327181E-1,1.631911111E-1,2.423689680E-1
9.504691666E-2,2.702591845E-1,1.002952436E-1,6.711878514E-1,7.304740205E-1
1.050889167E-1,3.804385614E-1,-1.448536581E-1,6.449566573E-1,7.626828771E-1
1.151309167E-1,4.059277439E-1,-6.588788778E-2,4.457782727E-1,6.064955198E-1
1.251719167E-1,2.692474701E-1,2.134125540E-1,3.106064343E-1,4.631581537E-1
1.352139167E-1,2.324236062E-1,3.092712227E-1,6.306561220E-1,7.398625319E-1
1.452549167E-1,6.115383580E-2,-2.222526670E-2,6.312478602E-2,9.065590286E-2
1.552969167E-1,1.999228813E-1,-2.207537332E-1,-4.008125997E-1,4.993516889E-1
1.653389167E-1,1.898243013E-1,4.736425942E-1,6.701552331E-2,5.146471148E-1
1.753799167E-1,-3.556155230E-1,8.462493950E-1,9.142297089E-2,9.224741722E-1
1.854219167E-1,-4.887273873E-1,7.219934312E-1,7.419473469E-2,8.750050471E-1
1.954629167E-1,-3.594999745E-1,3.470196775E-1,-4.048068327E-1,6.430641181E-1
2.055049167E-1,-8.317459613E-2,8.238551438E-2,-2.494404656E-1,2.755466064E-1
2.155469167E-1,1.908747536E-1,-4.166667402E-2,1.678969502E-1,2.576017647E-1
2.255879167E-1,3.135104540E-1,-1.174027348E-1,2.902528614E-1,4.430789212E-1
2.356299167E-1,4.363174778E-1,-1.539808694E-1,3.360231113E-1,5.718343999E-1
2.456719167E-1,4.626743871E-1,-2.442639256E-1,4.692823255E-1,7.028217091E-1
2.557129167E-1,1.797210436E-1,-1.592667523E-1,1.023338753E-1,2.610321320E-1
2.657549167E-1,1.101060090E0,-9.578464293E-1,-4.457958144E-1,1.525954459E0
2.757959167E-1,6.781423835E-1,-1.495262851E0,-6.393585330E-1,1.761949891E0
2.858379167E-1,-6.588949576E-1,1.878727931E-1,3.609842902E-1,7.744342511E-1
2.958799167E-1,-1.081400581E0,1.317313367E0,1.172934503E0,2.068941051E0
3.059209167E-1,-3.174298427E-1,9.981273133E-1,4.867239851E-1,1.154954578E0
3.159629167E-1,9.794513796E-2,1.107117659E-1,-4.025942463E-1,4.288734922E-1
3.260039167E-1,3.029588610E-1,-4.774459156E-1,-6.098417884E-1,8.316523797E-1
3.360459167E-1,5.348591414E-1,-2.302765086E-1,-9.316836476E-2,5.897303755E-1
3.460879167E-1,3.063793360E-1,2.384289891E-1,-5.098590785E-1,6.408377020E-1
3.561289167E-1,3.814062756E-1,9.113558024E-2,-7.179357558E-1,8.180514596E-1
3.661709167E-1,4.701268096E-1,-1.472337672E-1,-3.580951810E-1,6.090395373E-1
3.762129167E-1,8.889621359E-1,-2.423553944E-1,-1.598646301E-1,9.351719180E-1
3.862539167E-1,9.450258243E-1,-5.941466922E-1,-4.253188652E-1,1.194562781E0
3.962959167E-1,6.917971944E-2,-9.831625342E-1,-1.542276219E0,1.830303346E0
4.063369167E-1,-6.714670560E-1,-1.296780869E-1,-2.529639392E0,2.620450318E0
4.163789167E-1,2.290339981E-2,-1.128077003E-1,-6.882435948E-1,6.978032593E-1
4.264209167E-1,2.843758249E-1,6.609926462E-2,3.095252842E-1,4.254933891E-1
4.364619167E-1,1.476566086E0,8.149840406E-1,6.453975374E-1,1.805819585E0
4.465039167E-1,9.401724891E-1,1.085012260E-1,6.047757608E-1,1.123143155E0
4.565459167E-1,1.576606976E0,-4.501832727E-1,3.067694914E-1,1.668071358E0
4.665869167E-1,1.262102787E0,-1.436663225E0,-6.434094840E-1,2.017642295E0
4.766289167E-1,1.495617192E0,-1.461939569E0,-1.640091366E-1,2.097864887E0
4.866699167E-1,1.495267236E0,-1.206967929E0,1.002075938E0,2.167199085E0
4.967119167E-1,1.433261461E-1,-9.064002872E-1,-5.329678595E-2,9.192085792E-1
5.067539167E-1,2.338023797E-2,-2.944301122E-1,-1.840814584E0,1.864358887E0
5.167949167E-1,1.659262924E-1,-4.893297967E-1,-2.260739978E0,2.319034375E0
5.268369167E-1,-2.003643899E0,4.153914624E-1,-5.794729875E0,6.145407494E0
5.368789167E-1,-6.749450383E0,4.299952928E0,-4.082504919E0,8.983959154E0
5.469199167E-1,-2.738779971E0,2.666083877E0,3.029721926E0,4.877308061E0
5.569619167E-1,3.967458027E0,-3.756426459E0,2.412162398E0,5.972435883E0
5.670029167E-1,3.550427590E0,-4.831481788E0,3.314669609E-1,6.004883237E0
5.770449167E-1,-2.646551546E0,-1.056414113E0,-1.438034397E0,3.191894232E0
5.870869167E-1,-3.052837724E0,5.056819446E0,-6.384259021E-1,5.941281740E0
5.971277083E-1,-1.147696970E0,3.069280972E0,1.657852868E0,3.672352128E0
6.071697083E-1,9.295901982E-1,-2.087025633E0,-2.525020677E-1,2.298602015E0
6.172117083E-1,9.901974656E-1,-1.062894582E0,-1.724027562E0,2.254441604E0
6.272527083E-1,1.427766101E0,-9.884019318E-1,2.940857112E-1,1.761232757E0
6.372947083E-1,1.625891402E0,-6.094795534E-1,3.884837455E-1,1.779299806E0
6.473367083E-1,1.376428425E0,1.459416787E-1,5.861494553E-1,1.503138506E0
6.573777083E-1,3.058517709E-2,-4.879501462E-3,4.020370066E-2,5.075037083E-2
6.674197083E-1,-5.715426721E-1,2.417152704E-1,-4.459045726E-1,7.641453957E-1
6.774607083E-1,-2.714087471E-1,5.682138522E-1,-2.304381841E-1,6.705456335E-1
6.875027083E-1,-3.118086219E-1,4.885510938E-1,-1.242346215E-1,5.927402712E-1
6.975447083E-1,-8.216250157E-1,-4.621697724E-1,-2.725065619E-1,9.812891476E-1
7.075857083E-1,-3.354402901E-1,-1.441015746E0,-1.347699593E0,2.001334745E0
7.176277083E-1,1.026316521E0,-1.573787595E0,-2.209013169E0,2.899977961E0
7.276697083E-1,1.440607464E0,-1.168158497E0,-9.086725152E-1,2.065340137E0
7.377107083E-1,2.103918531E0,-3.264782627E-1,-4.774801219E-1,2.181982701E0
7.477527083E-1,2.428666164E0,1.679348110E-1,-2.520489669E0,3.504210269E0
7.577947083E-1,2.338936255E0,5.524154064E-1,-4.398047572E0,5.011846769E0
7.678357083E-1,2.804929521E0,1.443993879E0,-4.801345239E0,5.745055617E0
7.778777083E-1,3.684527049E0,1.281985075E0,-3.385929626E0,5.165631108E0
7.879187083E-1,3.880906079E0,-3.640388757E-1,-3.068753845E0,4.960968299E0
7.979607083E-1,3.296520729E0,-1.702776149E0,-3.099868634E0,4.834840336E0
8.080027083E-1,2.429604350E0,-2.445657442E0,-2.524101495E0,4.272622845E0
8.180437083E-1,1.897782545E0,-2.773084123E0,-1.710682461E0,3.770677476E0
8.280857083E-1,9.296702320E-1,-3.912822229E0,-1.550882151E0,4.310417611E0
8.381277083E-1,-6.747416429E-2,-3.603865294E0,-1.586764174E0,3.938301457E0
8.481687083E-1,4.659760174E-1,-2.872065205E0,-2.108166241E0,3.593084621E0
8.582107083E-1,8.787343325E-1,-2.956617990E0,-3.372517283E0,4.570299420E0
8.682527083E-1,1.140803468E0,-2.632602136E0,-3.793056049E0,4.755975268E0
8.782937083E-1,1.927924941E0,-2.515753132E0,-3.649320379E0,4.833575036E0
8.883357083E-1,1.861089220E0,-3.297603925E0,-3.123594296E0,4.908633828E0
8.983767083E-1,1.252029497E0,-4.700454456E0,-2.789123620E0,5.607232876E0
9.084187083E-1,1.077629273E0,-5.422738786E0,-2.426905568E0,6.037984053E0
9.184607083E-1,1.029745255E0,-5.350290615E0,-1.557787712E0,5.666805759E0
9.285017083E-1,-4.632938996E-1,-4.926218961E0,-1.914102416E0,5.305286283E0
9.385437083E-1,-1.068582754E0,-5.729154521E0,-2.964893847E0,6.538782467E0
9.485857083E-1,-2.090519929E0,-6.417311577E0,-3.553550588E0,7.627573876E0
9.586267083E-1,-9.093344200E-1,-6.760426776E0,-3.001329017E0,7.452397946E0
9.686687083E-1,-2.031100523E-1,-6.285482007E0,-1.067026225E0,6.378642702E0
9.787107083E-1,5.748035181E-1,-6.223934215E0,1.484315693E-1,6.252182669E0
9.887517083E-1,7.049373955E-1,-6.188933367E0,7.837116694E-1,6.278059966E0
9.987937083E-1,4.230694413E-1,-6.235418147E0,1.331770023E0,6.390073443E0
1.008835708E0,-4.833782083E-1,-6.954844358E0,1.736785017E0,7.184701576E0
1.018876708E0,4.264257431E-2,-5.229292427E0,2.474622356E0,5.785419041E0
1.028918708E0,-5.334379756E-1,-6.182870389E0,3.398802856E0,7.075613272E0
1.038960708E0,-1.430110835E0,-7.642424878E0,4.399746189E0,8.933624211E0
1.049001708E0,-1.657621903E0,-7.291972593E0,6.519383497E0,9.920833425E0
1.059043708E0,-1.172396559E0,-6.581593194E0,6.770560001E0,9.514849730E0
1.069084708E0,-2.130421329E0,-6.720490878E0,7.221519492E0,1.009227608E1
1.079126708E0,-1.339654993E0,-5.183637367E0,8.588866898E0,1.012093901E1
1.089168708E0,-1.003430153E0,-6.146225889E0,9.348122588E0,1.123255806E1
1.099209708E0,-6.042881030E-1,-5.273475158E0,9.498712950E0,1.088118799E1
1.109251708E0,-1.365775090E0,-5.534263315E0,8.632121676E0,1.034441572E1
1.119293708E0,1.309226668E-1,-4.748561254E0,8.269666811E0,9.536947305E0
1.129334708E0,2.648467094E0,-2.844910735E0,9.284149371E0,1.006495527E1
1.139376708E0,4.397668673E0,-6.114117658E-1,1.042054053E1,1.132700221E1
1.149418708E0,5.120950538E0,9.168293810E-1,1.234488493E1,1.339630152E1
1.159459708E0,5.461193000E0,1.797339367E0,1.305850486E1,1.426813256E1
1.169501708E0,5.454034254E0,2.136833970E0,1.246852547E1,1.377594558E1
1.179543708E0,5.675887556E0,1.654964343E0,1.255060401E1,1.387343748E1
1.189584708E0,6.219211419E0,8.062942010E-1,1.277197141E1,1.422856123E1
1.199626708E0,6.000412703E0,6.885394639E-1,1.297934993E1,1.431581516E1
1.209668708E0,5.760104418E0,1.101568651E0,1.334285729E1,1.457477606E1
1.219709708E0,5.662492170E0,2.114532105E0,1.321450272E1,1.453128163E1
1.229751708E0,5.223431763E0,1.402345916E0,1.241218638E1,1.353931993E1
1.239793708E0,5.063678230E0,3.801631576E-1,9.266188479E0,1.056634327E1
1.249834708E0,4.643726816E0,2.481433192E0,5.482562234E0,7.601328705E0
1.259876708E0,8.613921633E0,4.929771144E0,-1.813299927E0,1.008912018E1
1.269918708E0,1.140128816E1,7.692971134E0,-9.428135887E0,1.667515886E1
1.279959708E0,9.170852551E0,9.295884148E0,-5.799754972E0,1.428828738E1
1.290001708E0,1.222848090E1,1.228474983E1,-4.700523453E0,1.795955857E1
1.300043708E0,1.101168468E1,8.587879304E0,5.638615065E0,1.505997511E1
1.310084708E0,1.572399553E1,7.582480393E0,5.773071789E0,1.838658213E1
1.320126708E0,1.451809852E1,8.795687594E0,4.454777551E0,1.754948284E1
1.330168708E0,1.351261132E1,8.049780512E0,-2.424587731E0,1.591440406E1
1.340209708E0,9.531509982E0,7.977663878E0,-8.931764581E0,1.530585581E1
1.350251708E0,5.234184793E0,2.867952858E0,-5.664108925E0,8.228242458E0
1.360292708E0,2.535164134E0,-1.855762991E0,-2.372248135E0,3.936810216E0
1.370334708E0,8.720718688E-1,-2.674848561E0,-2.249388193E0,3.602092644E0
1.380376708E0,5.197508132E-1,-1.264355720E0,-4.211654710E0,4.427953442E0
1.390417708E0,-4.387022647E-1,-2.204568701E0,5.314271182E0,5.770100608E0
1.400459708E0,2.311553451E-1,2.827520531E0,-5.184533161E0,5.909965249E0
1.410501708E0,1.156958156E0,4.880507183E-1,-6.533567673E0,6.653138524E0
1.420542708E0,2.202301151E-1,1.046154588E0,-1.174248372E0,1.588017622E0
1.430584708E0,6.919887364E-3,-1.822931460E0,-3.151111293E-1,1.849978923E0
1.440626708E0,-1.468903310E0,-2.962345630E-1,-3.299744591E-1,1.534377722E0
1.450667708E0,-1.511050918E0,2.175211000E-1,3.549493790E-2,1.527039683E0
1.460709708E0,-1.361351087E0,4.350229043E-1,2.407841598E0,2.800039798E0
1.470751708E0,-1.859570991E0,1.506130486E0,-4.348767239E-1,2.432190591E0
1.480792708E0,-2.093061714E0,8.553611112E-1,-1.691279646E0,2.823646013E0
1.490834708E0,-1.880140618E0,-1.236758616E0,2.260896099E-1,2.261773006E0
1.500876708E0,-5.087779284E-1,-1.178803353E0,2.239753152E0,2.581651895E0
1.510917708E0,1.072327018E0,1.007292239E0,1.353904658E0,1.999395086E0
1.520959708E0,2.152751553E0,3.250029809E0,1.224464260E0,4.086116217E0
1.531001708E0,3.144736074E0,5.192108229E0,-9.643970650E-1,6.146333422E0
1.541042708E0,1.989476534E0,6.037059542E0,-2.996524360E0,7.027322608E0
1.551084708E0,2.163343711E-1,4.941101879E0,-3.032871237E0,5.801689088E0
1.561126708E0,-1.374571057E0,2.204238333E0,-1.024684782E0,2.792506244E0
1.571167708E0,-2.203170924E0,1.210217519E0,-1.179009175E0,2.776445785E0
1.581209708E0,-1.854027245E0,1.331067773E0,-1.613722470E0,2.795220680E0
1.591252042E0,-1.182519259E0,1.651505131E0,-1.624521107E0,2.600940180E0
1.601293042E0,-8.538808885E-1,2.004453008E0,-1.478815218E0,2.633218350E0
1.611335042E0,-1.594357661E0,1.878741964E0,-9.498129398E-1,2.640793884E0
1.621377042E0,-1.493385602E0,1.954369851E0,-1.956696751E0,3.142996062E0
1.631418042E0,9.085082084E-1,2.748449804E0,-2.600826904E0,3.891486101E0
1.641460042E0,1.431753318E0,1.665724390E0,-9.390400296E-1,2.388797078E0
1.651502042E0,2.259931308E0,2.309609252E-1,5.008090505E-1,2.326250668E0
1.661543042E0,2.098007289E0,-8.424019271E-1,1.213261872E0,2.565790319E0
1.671585042E0,1.190807102E0,-2.421971687E0,2.297834129E0,3.544574741E0
1.681627042E0,7.584531596E-1,-3.002617158E0,1.792965649E0,3.578503432E0
1.691668042E0,1.450403597E0,-2.250395669E0,1.094125730E0,2.892241756E0
1.701710042E0,1.703469044E0,-1.741170428E0,4.945765033E-1,2.485575821E0
1.711752042E0,1.434290717E0,-1.287347556E0,-2.420718044E-2,1.927443794E0
1.721793042E0,1.134368315E0,-4.975536132E-1,-7.686469030E-1,1.457795985E0
1.731835042E0,1.983882795E0,1.580943271E0,-1.967011532E0,3.210032233E0
1.741877042E0,-1.008189348E-1,2.811157098E0,-3.551270466E0,4.530374224E0
1.751918042E0,7.262886496E-1,1.536691543E0,-1.585588007E0,2.324436583E0
1.761960042E0,2.296669364E0,2.126384411E0,-7.901859990E-1,3.228094599E0
1.772002042E0,4.186078404E0,7.902255262E0,-8.013918954E-1,8.978369540E0
1.782043042E0,6.420384289E0,7.561568996E0,2.516510054E0,1.023384009E1
1.792085042E0,3.799783856E0,1.694024329E0,3.054648022E0,5.161293473E0
1.802127042E0,-8.801783024E-1,-5.991837176E0,1.744750532E0,6.302458331E0
1.812168042E0,1.406846810E0,2.110084713E-2,4.909612284E0,5.107245439E0
1.822210042E0,3.374597430E0,2.635635379E0,1.763322020E0,4.630743592E0
1.832252042E0,9.529172266E-1,-3.853841364E-1,9.965754622E-1,1.431689500E0
1.842294042E0,5.536912689E-1,-2.209113157E0,5.994758445E-1,2.355021496E0
1.852335042E0,1.474594990E0,-2.228184435E0,1.560487372E-1,2.676487898E0
1.862377042E0,1.881685306E0,-1.307677156E-1,9.043278877E-1,2.091805133E0
1.872419042E0,5.641191933E-1,-1.163255607E0,1.471727369E0,1.958922030E0
1.882460042E0,-1.983429198E0,-2.044638582E0,7.951469960E-1,2.957498446E0
1.892502042E0,-2.952394254E0,5.936502635E-2,-3.370148722E-1,2.972159999E0
1.902544042E0,-4.588581141E0,-6.797271252E-1,-9.174141026E-1,4.728504466E0
1.912585042E0,-4.700677820E0,-1.095056022E0,-1.261251433E0,4.988614521E0
1.922627042E0,-6.263787668E0,-2.982565886E0,-6.053259838E-1,6.963989859E0
1.932669042E0,-4.348895293E0,-2.235357215E0,-2.367380474E-1,4.895483332E0
1.942710042E0,-3.176126266E0,-2.608845776E0,-4.634603260E-1,4.136260366E0
1.952752042E0,-2.713226177E0,-2.774906700E0,-7.358697510E-1,3.950089590E0
1.962794042E0,-8.753831470E-1,-1.359044945E-1,1.223658514E-1,8.942813245E-1
1.972835042E0,4.505525243E-1,7.932449698E-1,2.503216410E-1,9.459894731E-1
1.982877042E0,-1.407054971E0,-6.285681982E0,2.167457227E-1,6.444887926E0
1.992919042E0,-6.674231216E-2,-4.506120490E0,2.581412394E0,5.193579339E0
2.002960042E0,3.011367224E0,-1.500672110E0,2.025843292E0,3.927389767E0
2.013002042E0,3.795706592E0,-1.281318492E0,9.216732144E-1,4.110796410E0
2.023044042E0,3.901296197E0,-1.499994417E0,3.058865619E-1,4.190902273E0
2.033085042E0,3.209356577E0,-1.437641464E0,1.606043029E-1,3.520309129E0
2.043127042E0,2.451340205E0,-2.165963044E0,4.656161213E-1,3.304128188E0
2.053169042E0,1.761537596E0,-2.226764147E0,6.217660153E-1,2.906559176E0
2.063210042E0,1.181760875E0,-1.702334976E0,3.362686944E-1,2.099423676E0
2.073252042E0,6.609150244E-1,-1.024335119E0,3.969112643E-1,1.282033407E0
2.083294042E0,4.929829909E-1,-2.482710224E-1,7.145729490E-1,9.029314644E-1
2.093336042E0,1.402942917E-1,9.779152429E-1,-6.680677772E-2,9.901837487E-1
2.103377042E0,-1.853786632E-1,2.731560706E0,-4.683362460E-1,2.777611920E0
2.113419042E0,-3.928194559E-1,3.310366058E0,7.416023612E-2,3.334416037E0
2.123461042E0,-7.444210846E-1,4.099774085E0,-5.320841990E-2,4.167150278E0
2.133502042E0,-1.114492460E0,4.562299953E0,4.896762443E-1,4.721912444E0
2.143544042E0,-1.159403315E0,4.962436030E0,7.080345925E-1,5.145026762E0
2.153586042E0,-6.650445474E-1,5.302473255E0,8.452391423E-2,5.344684384E0
2.163627042E0,-2.843247349E-1,5.704917228E0,-1.947115503E-2,5.712031185E0
2.173669042E0,-2.968856505E-1,6.053365672E0,1.356368090E0,6.210564503E0
2.183711042E0,1.426723543E-1,6.061902022E0,1.764387968E0,6.315067413E0
2.193752042E0,2.330923084E-1,5.455752751E0,2.284972594E0,5.919516015E0
2.203794042E0,3.486235687E-1,4.845231516E0,2.021079565E0,5.261422758E0
2.213836042E0,3.703679019E-1,5.077627348E0,1.327869930E0,5.261436155E0
2.223877042E0,-1.088731820E-1,4.937619277E0,7.226457611E-1,4.991408057E0
2.233919042E0,-5.876931933E-1,4.615344724E0,1.932740124E-1,4.656623783E0
2.243961042E0,-6.689554576E-1,4.387101000E0,-9.389217697E-2,4.438803029E0
2.254002042E0,-9.851991194E-1,4.954398447E0,1.466440755E0,5.259955301E0
2.264044042E0,-3.510669740E-1,3.964808654E0,4.603507036E0,6.085657952E0
2.274086042E0,4.718760042E-1,2.717201114E0,3.658069568E0,4.581192183E0
2.284128042E0,6.020715697E-1,1.571147431E0,4.164066560E0,4.491151828E0
2.294169042E0,1.573580165E0,-7.170966804E-1,5.334998392E0,5.608260873E0
2.304211042E0,2.148259429E0,-1.771947833E0,1.573443632E0,3.198521934E0
2.314253042E0,2.841559111E0,-2.061717714E0,3.358734226E-1,3.526747662E0
2.324294042E0,2.968452170E0,-3.413226183E0,-4.653097272E-2,4.523713783E0
2.334336042E0,2.133247580E0,-4.816935085E0,1.680415519E0,5.529684003E0
2.344378042E0,-1.243914000E0,-6.856960799E0,3.286870776E0,7.705112130E0
2.354419042E0,-5.004226665E0,-2.016014941E1,2.722193905E-1,2.077373371E1
2.364461042E0,1.629532171E0,-2.138404415E1,-3.554694888E0,2.173864244E1
2.374503042E0,8.618338035E0,-1.622377810E1,-6.805608796E0,1.959089170E1
2.384544042E0,6.228961067E0,-6.247492647E0,-8.418458569E-1,8.862269731E0
2.394586042E0,2.114668637E0,-6.475978446E-1,2.090156232E0,3.043018154E0
2.404628042E0,9.073437354E-1,2.400052814E0,2.063888201E0,3.292895484E0
2.414669042E0,3.821633439E-1,3.123415956E0,4.351795366E-1,3.176658194E0
2.424711042E0,1.997825481E-1,2.599893689E0,1.502785586E-2,2.607601598E0
2.434753042E0,-1.216593616E-1,2.215657945E0,9.228355678E-1,2.403240857E0
2.444795042E0,-1.217630035E-1,1.686333486E0,1.502956032E0,2.262172339E0
2.454836042E0,4.475841853E-1,1.151602106E0,1.457526090E0,1.910733188E0
2.464878042E0,1.186349770E0,5.302278543E-1,1.230671080E0,1.789725862E0
2.474920042E0,1.683878532E0,-1.794440317E-1,7.572635436E-1,1.855018907E0
2.484961042E0,1.552719346E0,-3.181809175E-1,4.166959032E-1,1.638844696E0
2.495003042E0,1.129508694E0,2.795945567E-1,2.572190166E-1,1.191689821E0
2.505045042E0,4.921127790E-1,2.587258440E-1,-2.515921678E-1,6.102562319E-1
2.515086042E0,-3.202549249E-1,7.640404665E-1,1.994328115E-1,8.521117871E-1
2.525128042E0,-5.803075022E-1,3.698083234E-1,4.120485362E-1,8.020592180E-1
2.535170042E0,-3.062555212E-1,1.127972923E0,5.982368195E-1,1.313012815E0
2.545212042E0,6.533444881E-2,1.027196746E0,5.321515882E-1,1.158700590E0
2.555253042E0,5.472315574E-1,7.960083640E-1,7.580026317E-1,1.227867942E0
2.565295042E0,1.261382995E0,9.651525253E-1,1.371080854E0,2.098206178E0
2.575337042E0,1.886824863E0,1.299828438E0,1.996041788E0,3.038724214E0
2.585378042E0,2.021533017E0,1.175628315E0,2.283304968E0,3.268360331E0
2.595419958E0,1.702443150E0,6.261081576E-2,2.249226372E0,2.821569078E0
2.605461958E0,9.852283555E-1,-1.249677454E0,1.720951341E0,2.343937322E0
2.615502958E0,5.579921883E-1,-1.849991205E0,9.146518779E-1,2.137851912E0
2.625544958E0,5.884199291E-1,-1.841574723E0,7.028930627E-2,1.934573870E0
2.635586958E0,6.006511348E-1,-1.613987641E0,-5.988169364E-1,1.823271678E0
2.645628958E0,3.960012183E-1,-1.147770426E0,-9.193249726E-1,1.522941995E0
2.655669958E0,-5.094649762E-2,-5.882094294E-1,-8.734758583E-1,1.054298797E0
2.665711958E0,-2.025317627E-1,-1.586875856E-1,-5.357050142E-1,5.942901034E-1
2.675753958E0,-2.040578860E-1,8.303397059E-2,-1.986509657E-1,2.966419850E-1
2.685794958E0,-1.107287228E-1,1.276920801E-1,8.614410460E-2,1.897021986E-1
2.695836958E0,1.675914332E-1,4.192804456E-2,1.441935074E-1,2.250258141E-1
2.705878958E0,5.102061108E-1,-6.421938479E-2,-4.311093628E-2,5.160358105E-1
2.715919958E0,6.134609225E-1,-1.121612906E-2,-2.152319151E-1,6.502191033E-1
2.725961958E0,5.153677404E-1,3.908284789E-1,2.468212053E-2,6.472712066E-1
2.736003958E0,1.467478636E-1,7.105203170E-1,1.228330439E-1,7.358410242E-1
2.746045958E0,-6.912285984E-3,8.582578218E-1,-3.182113230E-2,8.588753418E-1
2.756086958E0,-5.771786571E-2,9.222140819E-1,6.484445214E-2,9.262909736E-1
2.766128958E0,1.417014241E-2,1.005688348E0,4.318051815E-1,1.094561812E0
2.776170958E0,1.644944555E-1,1.145250860E0,7.714458190E-1,1.390606562E0
2.786211958E0,3.331746402E-1,1.106048788E0,8.143339764E-1,1.413325542E0
2.796253958E0,4.031383297E-1,9.775609016E-1,7.575779776E-1,1.300795995E0
2.806295958E0,2.375712025E-1,9.222532582E-1,6.355799161E-1,1.144968549E0
2.816336958E0,1.659264386E-1,9.289360410E-1,6.079908523E-1,1.122544711E0
2.826378958E0,2.111964592E-1,9.836443448E-1,6.219939105E-1,1.182808761E0
2.836420958E0,4.326740777E-1,1.017284546E0,7.436390926E-1,1.332318958E0
2.846462958E0,5.569230250E-1,1.248487546E0,8.543186988E-1,1.612062296E0
2.856503958E0,7.339913329E-1,1.301249896E0,9.414483516E-1,1.765876431E0
2.866545958E0,8.127898729E-1,1.293733885E0,1.091231943E0,1.877541450E0
2.876587958E0,7.105992544E-1,1.359907410E0,1.258096860E0,1.984214498E0
2.886628958E0,7.086655802E-1,1.496363881E0,1.332706162E0,2.125421719E0
2.896670958E0,5.903231978E-1,1.270266670E0,1.353554994E0,1.947862935E0
2.906712958E0,6.238376838E-1,9.440943629E-1,1.479235632E0,1.862424677E0
2.916754958E0,7.878658238E-1,8.130682003E-1,1.539637370E0,1.911098032E0
2.926795958E0,1.188466754E0,8.070555085E-1,1.515179052E0,2.087955789E0
2.936837958E0,1.702495190E0,7.408808148E-1,1.445122976E0,2.352822703E0
2.946879958E0,1.836416017E0,1.099618605E0,1.602148637E0,2.673661369E0
2.956920958E0,1.974821950E0,1.070314699E0,1.790759641E0,2.872684351E0
2.966962958E0,1.918310072E0,1.377626812E0,2.063291785E0,3.136071134E0
2.977004958E0,1.983883380E0,1.267820195E0,2.255458188E0,3.260406869E0
2.987045958E0,2.174980328E0,9.495843136E-1,2.390735715E0,3.368659534E0
2.997087958E0,2.288981445E0,9.460011399E-1,2.266821521E0,3.357504135E0
3.007129958E0,2.113342781E0,8.106117851E-1,2.165137271E0,3.132272111E0
3.017171958E0,1.740824566E0,7.712535918E-1,2.476783487E0,3.124061253E0
3.027212958E0,1.483636247E0,5.944782293E-1,2.578684083E0,3.033841209E0
3.037254958E0,1.542363927E0,3.149117392E-1,2.544300701E0,2.991909414E0
3.047296958E0,1.832074751E0,-4.285482824E-2,2.897160870E0,3.428100864E0
3.057337958E0,2.259280513E0,-6.406291330E-1,2.915987735E0,3.744027055E0
3.067379958E0,2.180185812E0,-1.804288198E0,2.475122293E0,3.759640466E0
3.077421958E0,1.874513258E0,-2.766174468E0,1.941677300E0,3.864664524E0
3.087463958E0,1.651648095E0,-2.712437972E0,1.775843102E0,3.638527161E0
3.097504958E0,1.215228291E0,-2.073241991E0,1.825506428E0,3.017877710E0
3.107546958E0,5.579325467E-1,-1.127559525E0,1.784572995E0,2.183433072E0
3.117588958E0,-2.807920665E-1,-7.423046118E-1,1.511137310E0,1.706867391E0
3.127629958E0,-9.599838790E-1,-8.732559299E-1,1.143888021E0,1.729920452E0
3.137671958E0,-1.606499989E0,-7.662355113E-1,1.023074459E0,2.052958943E0
3.147713958E0,-2.530837779E0,-4.231536412E-1,1.480130256E0,2.962260023E0
3.157755958E0,-3.244811170E0,1.897433174E-1,1.881601983E0,3.755692756E0
3.167796958E0,-3.303233625E0,7.063623619E-1,1.216385601E0,3.590249865E0
3.177838958E0,-2.722532313E0,5.709502029E-1,-3.378369176E-1,2.802195587E0
3.187880958E0,-1.280262339E0,-1.491104311E-1,-1.261692459E0,1.803655577E0
3.197921958E0,3.700755411E-1,-1.290213861E0,-1.248832385E0,1.833354860E0
3.207963958E0,1.898712691E0,-1.962100455E0,-8.132887866E-1,2.848927294E0
3.218005958E0,2.769174675E0,-2.309054936E0,-5.427287628E-1,3.646178491E0
3.228047958E0,2.913356488E0,-2.315353557E0,-3.658651073E-1,3.739300121E0
3.238088958E0,2.465192259E0,-1.771701665E0,-4.810429765E-1,3.073678904E0
3.248130958E0,1.855631721E0,-1.011929666E0,-5.534553337E-1,2.184876093E0
3.258172958E0,1.325062536E0,-3.308880866E-1,-5.381194027E-1,1.467940783E0
3.268213958E0,1.002819996E0,2.387517554E-1,-4.850265384E-1,1.139254620E0
3.278255958E0,4.586235823E-1,5.252968973E-1,-3.802515967E-1,7.942692851E-1
3.288297958E0,-2.360721226E-1,5.612280375E-1,-1.853627296E-1,6.364481901E-1
3.298339958E0,-6.474692059E-1,3.085061145E-1,-3.460019696E-1,7.963100892E-1
3.308380958E0,-8.500641185E-1,-3.633752167E-2,-6.112299174E-1,1.047631344E0
3.318422958E0,-9.690898941E-1,-2.014166987E-1,-6.070142211E-1,1.161107305E0
3.328464958E0,-9.821902885E-1,-1.689751768E-1,-3.990211590E-1,1.073530744E0
3.338505958E0,-7.786022262E-1,-7.780422091E-2,-4.695844804E-1,9.125702755E-1
3.348547958E0,-5.742854548E-1,1.137780458E-1,-6.142125821E-1,8.485318634E-1
3.358589958E0,-3.533022183E-1,7.765295345E-1,-3.507580948E-1,9.224162924E-1
3.368631958E0,9.930618703E-3,1.792952785E0,-8.746966839E-2,1.795112601E0
3.378672958E0,3.482133865E-1,2.647331564E0,6.201206088E-2,2.670854259E0
3.388714958E0,2.527385876E-2,2.935089419E0,1.341661904E0,3.227296908E0
3.398756958E0,-6.190713260E-1,3.094274018E0,1.293236872E0,3.410314151E0
3.408797958E0,-8.997192585E-1,2.951202591E0,7.822826099E-1,3.182932227E0
3.418839958E0,-8.245518395E-1,2.173616465E0,-2.577481896E-1,2.339001582E0
3.428881958E0,-5.555337265E-1,1.200813442E0,-3.638663828E-1,1.372213318E0
3.438923958E0,-6.162909749E-1,4.881091905E-1,3.287029821E-1,8.521213517E-1
3.448964958E0,-4.067679888E-1,1.459242833E-1,1.144139889E0,1.223033188E0
3.459006958E0,-1.825179130E-2,6.310198188E-2,1.354364249E0,1.355956307E0
3.469048958E0,4.122422252E-1,1.030606842E-1,6.450625650E-1,7.724447356E-1
3.479089958E0,5.122102439E-1,3.747796261E-1,3.759005374E-1,7.376451153E-1
3.489131958E0,5.765375099E-1,7.985624278E-1,8.950005555E-1,1.330835619E0
3.499173958E0,5.837496849E-1,1.183033814E0,1.150627960E0,1.750507755E0
3.509215958E0,5.088647230E-1,1.349789972E0,1.358767787E0,1.981697801E0
3.519256958E0,6.999137601E-1,1.335782967E0,1.582484597E0,2.185967270E0
3.529298958E0,1.044634897E0,1.195476689E0,1.706784707E0,2.330995628E0
3.539340958E0,1.450740104E0,1.150740811E0,1.833035449E0,2.605546050E0
3.549382958E0,1.560386800E0,1.039108694E0,1.940431259E0,2.698115511E0
3.559423958E0,1.411709940E0,8.313080049E-1,1.868166690E0,2.484762510E0
3.569465958E0,1.091718724E0,7.311060244E-1,2.039471397E0,2.426068707E0
3.579507958E0,7.272951016E-1,7.832070547E-1,2.568738554E0,2.782227384E0
3.589548958E0,6.798750597E-1,9.986553168E-1,3.265545981E0,3.481857707E0
3.599590542E0,9.053758550E-1,1.151964049E0,3.813738236E0,4.085501920E0
3.609632542E0,1.544797246E0,1.235713134E0,4.457706714E0,4.876939063E0
3.619674542E0,1.830865255E0,1.320908820E0,4.769083811E0,5.276459806E0
3.629715542E0,1.327431681E0,1.131659592E0,4.284154336E0,4.625657432E0
3.639757542E0,6.321497932E-1,5.163442254E-1,3.183766823E0,3.286730275E0
3.649799542E0,-1.776135609E-1,-5.577103525E-1,1.740795622E0,1.836561137E0
3.659841542E0,-7.387278700E-1,-1.846020945E0,3.758262777E-1,2.023550738E0
3.669882542E0,-7.067646503E-1,-2.759420934E0,-2.931080568E-1,2.863534965E0
3.679924542E0,-9.937693834E-2,-2.864526390E0,3.191995025E-1,2.883968713E0
3.689966542E0,1.222626480E0,-2.328784027E0,1.384216039E0,2.972222165E0
3.700007542E0,2.439219804E0,-1.314475713E0,2.607099212E0,3.804550690E0
3.710049542E0,2.833223321E0,-2.719744653E-1,3.546570182E0,4.547448136E0
3.720091542E0,2.653369399E0,3.198520517E-1,4.076244889E0,4.874263729E0
3.730133542E0,2.204147994E0,3.771021402E-1,4.137227840E0,4.702885136E0
3.740174542E0,1.733565832E0,9.864311278E-2,3.647488446E0,4.039697133E0
3.750216542E0,1.357745402E0,-1.920845425E-1,2.736492248E0,3.060842836E0
3.760258542E0,1.464491586E0,-4.315221763E-1,1.196834997E0,1.939938402E0
3.770300542E0,2.107597892E0,-7.877743149E-1,-9.200666919E-3,2.250031532E0
3.780341542E0,2.745038830E0,-1.050859843E0,-3.719250885E-1,2.962747519E0
3.790383542E0,3.084236687E0,-1.490698514E0,-2.890104742E-1,3.437764544E0
3.800425542E0,3.002317488E0,-2.245503888E0,-1.037811343E-1,3.750595758E0
3.810466542E0,2.337799556E0,-3.119588953E0,-1.744544564E-1,3.902252729E0
3.820508542E0,1.928699990E0,-3.829594131E0,-2.181735031E-1,4.293398949E0
3.830550542E0,1.515396568E0,-4.181712872E0,-2.258978943E-1,4.453558034E0
3.840592542E0,2.103900551E-1,-4.402097354E0,-1.028215989E0,4.525478230E0
3.850633542E0,-4.911498888E-1,-4.195842084E0,-1.782125058E0,4.585006950E0
3.860675542E0,-7.893242656E-1,-3.545763851E0,-2.540355585E0,4.432705785E0
3.870717542E0,-1.097860055E0,-2.843014483E0,-2.976605819E0,4.260071626E0
3.880759542E0,-1.236741221E0,-2.159365631E0,-2.815663548E0,3.757705415E0
3.890800542E0,-1.253231100E0,-9.821006799E-1,-1.192619154E0,1.989334155E0
3.900842542E0,-1.177205894E0,6.998585039E-1,6.560780615E-1,1.518569743E0
3.910884542E0,1.126270214E-1,2.715004315E0,1.733193949E0,3.223025681E0
3.920925542E0,-9.249739677E-1,4.081929553E0,8.837955362E-1,4.277712036E0
3.930967542E0,-1.424523382E0,4.531286906E0,1.670559745E-1,4.752866039E0
3.941009542E0,-1.069783187E0,4.393421255E0,-1.741675043E-1,4.525143170E0
3.951051542E0,-1.597428911E0,3.453539811E0,-1.659198605E0,4.151103030E0
3.961092542E0,-1.480668493E0,2.767614638E0,-3.057597942E0,4.381891731E0
3.971134542E0,-1.517100154E0,1.692166668E0,-3.585408558E0,4.245017719E0
3.981176542E0,-1.941999774E0,9.740981805E-1,-2.829227041E0,3.567177601E0
3.991218542E0,-2.529933800E0,6.196212566E-1,-2.221099364E0,3.423124000E0
4.001259542E0,-2.712478902E0,4.642665839E-1,-2.007553786E0,3.406370130E0
4.011301542E0,-2.967198234E0,5.856191128E-1,-2.075159293E0,3.667901471E0
4.021343542E0,-2.861338780E0,6.757527727E-1,-2.551950321E0,3.893115958E0
4.031384542E0,-2.657140561E0,9.445767581E-1,-2.290492950E0,3.633039935E0
4.041426542E0,-2.560655656E0,1.187487638E0,-1.927952716E0,3.418199226E0
4.051468542E0,-2.439799555E0,1.196397040E0,-1.409761940E0,3.061276935E0
4.061510542E0,-2.587644649E0,1.108775929E0,-5.634894481E-1,2.871029301E0
4.071551542E0,-2.412817286E0,1.286788563E0,2.189384651E-1,2.743254657E0
4.081593542E0,-1.944345385E0,1.806873837E0,7.196644852E-1,2.750125271E0
4.091635542E0,-1.099553701E0,2.343675131E0,9.554063863E-1,2.759462415E0
4.101677542E0,2.157730749E-1,2.802004452E0,9.567798972E-1,2.968705903E0
4.111718542E0,2.133782893E0,3.391966876E0,1.177305589E0,4.176663402E0
4.121760542E0,4.057105199E0,3.498428886E0,9.889211646E-1,5.447666687E0
4.131802542E0,6.352085302E0,3.022113529E0,8.262881702E-1,7.082719111E0
4.141844542E0,8.040005722E0,1.990977514E0,1.540207474E0,8.424839615E0
4.151885542E0,8.767625052E0,9.671622133E-1,2.605867789E0,9.197673550E0
4.161927542E0,8.275463741E0,-5.365679902E-1,3.040732818E0,8.832738047E0
4.171969542E0,5.669374927E0,-2.928824127E0,3.339445431E0,7.202202345E0
4.182010542E0,2.622420379E0,-4.588717673E0,3.190926738E0,6.173769674E0
4.192052542E0,1.353159723E0,-4.051946200E0,3.495723379E0,5.519908621E0
4.202094542E0,1.573773123E0,-2.161960040E0,5.236251783E0,5.879554898E0
4.212136542E0,2.525042019E0,-7.696900463E-1,5.115283417E0,5.756247423E0
4.222177542E0,3.594337548E0,-1.296097330E0,9.735869877E-1,3.942968719E0
4.232219542E0,3.580952979E0,-3.022005356E0,-3.703322339E0,5.972464898E0
4.242261542E0,8.552929911E-1,-3.384787080E0,-4.560772076E0,5.743600927E0
4.252303542E0,-2.375034625E0,-1.264396065E0,1.533680812E-1,2.694996967E0
4.262344542E0,-3.745691556E0,-6.439871889E-1,2.177986528E0,4.380473724E0
4.272386542E0,-3.869700767E0,-3.298908439E0,-7.130819821E-1,5.134770378E0
4.282428542E0,-3.515147537E0,-6.693852133E0,-3.288658855E0,8.244949706E0
4.292470542E0,-3.165987779E0,-8.192742012E0,-2.345294809E-1,8.786324850E0
4.302511542E0,-4.173352816E0,-5.843299187E0,3.811378592E0,8.129429617E0
4.312553542E0,-5.509221445E0,-2.257981846E0,2.414783705E0,6.425043446E0
4.322595542E0,-5.685438398E0,-1.390557929E0,-2.166217983E0,6.241022471E0
4.332637542E0,-4.647753209E0,-1.641296477E0,-3.972921081E0,6.330842435E0
4.342678542E0,-2.976370761E0,-1.758106889E0,-2.116318721E0,4.053212019E0
4.352720542E0,-1.092431207E0,-2.178308855E0,-4.010336244E-1,2.469668678E0
4.362762542E0,1.672274441E-1,-2.824679369E0,-7.550481798E-1,2.928630450E0
4.372804542E0,5.198817909E-2,-3.099257600E0,-2.116720425E0,3.753479159E0
4.382845542E0,-1.158112981E0,-2.595798883E0,-2.367523731E0,3.699265621E0
4.392887542E0,-2.650238800E0,-1.536423156E0,-1.215579562E0,3.295754160E0
4.402929542E0,-3.992273903E0,-3.420363879E-1,3.694699158E-1,4.023897094E0
4.412971542E0,-4.313436608E0,7.784012282E-1,7.362531821E-1,4.444514888E0
4.423012542E0,-3.085805203E0,1.159651383E0,1.177881247E0,3.500626989E0
4.433054542E0,-1.929921766E0,1.664034544E0,8.428564020E-1,2.684029787E0
4.443096542E0,-8.042636092E-1,2.252760867E0,3.378157215E-1,2.415758875E0
4.453137542E0,3.082850897E-1,2.577920437E0,1.283070610E-1,2.599456900E0
4.463179542E0,1.031980353E0,2.929023517E0,-1.796966314E-2,3.105557136E0
4.473221542E0,9.315555936E-1,3.325185242E0,1.969317381E-1,3.458819860E0
4.483263542E0,7.028490624E-1,3.645122663E0,2.611237872E-1,3.721438118E0
4.493304542E0,3.561647227E-1,3.676469586E0,5.471520352E-1,3.733986780E0
4.503346542E0,1.922092344E-1,3.474981551E0,3.460907011E-1,3.497459070E0
4.513388542E0,2.995053492E-1,3.108032516E0,3.394932877E-1,3.140831939E0
4.523430542E0,6.210944626E-1,2.546519135E0,7.458167419E-2,2.622228148E0
4.533471542E0,5.237229730E-1,1.625841701E0,-6.244675020E-1,1.818682669E0
4.543513542E0,4.383616644E-1,9.240436757E-1,-9.330220753E-1,1.384394401E0
4.553555542E0,2.963285570E-1,5.200256324E-1,-9.609915736E-1,1.132140484E0
4.563597542E0,2.639105701E-1,3.956284583E-1,-8.083459890E-1,9.378666771E-1
4.573638542E0,4.238041440E-1,5.145491302E-1,-1.839300156E-1,6.915207954E-1
4.583680542E0,8.043823077E-1,6.364553905E-1,5.209365555E-1,1.150426554E0
4.593722208E0,1.150208715E0,7.893238270E-1,1.211885145E0,1.847884682E0
4.603764208E0,1.445127800E0,1.178308094E0,2.194489855E0,2.879685755E0
4.613805208E0,1.865502406E0,1.732775581E0,2.819734379E0,3.799146274E0
4.623847208E0,2.129089625E0,2.340689542E0,3.496963574E0,4.715994529E0
4.633889208E0,1.960896221E0,2.906055654E0,4.563228491E0,5.754418104E0
4.643931208E0,1.314336257E0,3.506982193E0,5.261357388E0,6.458195218E0
4.653972208E0,5.774533300E-1,3.900565880E0,5.605052047E0,6.853063182E0
4.664014208E0,-3.887604649E-1,3.866267282E0,5.161213295E0,6.460439620E0
4.674056208E0,-1.545224238E0,3.176084166E0,3.361927391E0,4.876246954E0
4.684098208E0,-3.102811245E0,1.576615162E0,2.109329252E0,4.069695675E0
4.694139208E0,-4.287249268E0,-4.751365578E-1,1.462969848E0,4.554837188E0
4.704181208E0,-4.641175384E0,-2.312855042E0,1.891377797E0,5.519702651E0
4.714223208E0,-3.781985808E0,-3.738481062E0,3.960103984E0,6.630390703E0
4.724265208E0,-1.489943346E0,-4.351244704E0,5.687848036E0,7.314702791E0
4.734306208E0,1.816066829E0,-3.982252067E0,5.127080759E0,6.741171068E0
4.744348208E0,4.331664133E0,-2.543989044E0,4.229354816E0,6.566782818E0
4.754390208E0,4.597434410E0,-8.548255062E-1,3.903808746E0,6.091539422E0
4.764432208E0,4.331005737E0,-4.857632875E-2,3.367854713E0,5.486566843E0
4.774473208E0,4.154213125E0,2.755313265E-1,2.174701708E0,4.697098223E0
4.784515208E0,3.748072835E0,6.851258594E-1,9.766727096E-1,3.933362048E0
4.794557208E0,2.682949586E0,1.414546131E0,7.231672597E-1,3.118033054E0
4.804599208E0,1.067891466E0,1.995617280E0,1.080444927E0,2.508035437E0
4.814640208E0,-3.158674666E-1,1.837997396E0,1.196090062E0,2.215544655E0
4.824682208E0,-1.153884274E0,8.228295422E-1,5.405312330E-1,1.516796423E0
4.834724208E0,-1.889521745E0,-9.109424043E-1,-1.248574231E-1,2.101356196E0
4.844766208E0,-2.634973474E0,-3.797586472E0,-7.885705595E-1,4.688986218E0
4.854807208E0,-2.814933815E0,-7.209091820E0,-1.372612824E0,7.859956947E0
4.864849208E0,-2.736011022E0,-1.045294229E1,-1.526511687E0,1.091237815E1
4.874891208E0,-2.840357509E0,-1.291956332E1,-1.970206596E0,1.337402188E1
4.884933208E0,-7.432021594E-1,-1.233853953E1,-2.464343535E0,1.260416186E1
4.894974208E0,2.967340322E0,-8.231274578E0,-2.709458231E0,9.159702706E0
4.905016208E0,5.371100271E0,-4.248354174E0,-3.961301201E0,7.911329756E0
4.915058208E0,7.132540657E0,-1.574775628E0,-4.088866397E0,8.370894989E0
4.925100208E0,7.358292298E0,6.914817828E-1,-3.540007559E0,8.194770657E0
4.935141208E0,6.255221497E0,3.214753557E0,-2.767521667E0,7.557884134E0
4.945183208E0,4.528076785E0,5.767575406E0,-3.505610436E-2,7.332778079E0
4.955225208E0,1.423300290E0,6.384020455E0,7.050233495E-1,6.578644147E0
4.965267208E0,-1.985075920E0,5.510763355E0,2.470261502E-1,5.862598493E0
4.975308208E0,-3.593109925E0,4.115503095E0,2.167450283E-1,5.467612191E0
4.985350208E0,-3.924722774E0,3.236005847E0,-1.133428375E0,5.211510585E0
4.995392208E0,-4.091960743E0,2.810598105E0,-1.558232685E0,5.203046563E0
5.005434208E0,-4.088749160E0,2.435036706E0,-1.885590515E0,5.118859741E0
5.015475208E0,-4.125608838E0,1.994465963E0,-1.742795662E0,4.902640052E0
5.025517208E0,-4.120549827E0,1.675862877E0,-1.407318973E0,4.665618282E0
5.035559208E0,-4.049931542E0,1.352197271E0,-1.677522901E0,4.587424772E0
5.045601208E0,-3.962491110E0,1.179241894E0,-1.943782006E0,4.568395312E0
5.055642208E0,-3.837455712E0,1.234831958E0,-2.415164943E0,4.699350807E0
5.065684208E0,-3.832935230E0,1.323691510E0,-2.868583773E0,4.967124374E0
5.075726208E0,-3.913243813E0,1.342699054E0,-2.749292680E0,4.967386448E0
5.085768208E0,-3.922896104E0,1.148566232E0,-2.404518625E0,4.742365238E0
5.095809208E0,-3.834724185E0,9.595204872E-1,-1.711406054E0,4.307516666E0
5.105851208E0,-3.738301845E0,8.538805962E-1,-7.512993836E-1,3.907488134E0
5.115893208E0,-3.532358524E0,1.092851622E0,3.208098257E-1,3.711441816E0
5.125935208E0,-2.690553305E0,1.528404284E0,1.033993257E0,3.262550965E0
5.135976208E0,-1.478067651E0,2.156657785E0,1.105916056E0,2.838821429E0
5.146018208E0,3.756344891E-1,2.932649961E0,9.295207626E-1,3.099281515E0
5.156060208E0,2.519207375E0,3.507138898E0,5.854571450E-1,4.357658674E0
5.166102208E0,4.934617317E0,3.679654564E0,1.177531292E0,6.267127390E0
5.176143208E0,7.260620992E0,2.987278157E0,1.768587730E0,8.047878636E0
5.186185208E0,8.839005522E0,1.849845609E0,2.557976754E0,9.385797380E0
5.196227208E0,8.434055432E0,-3.984491551E-1,2.210625831E0,8.728053582E0
5.206269208E0,4.849766324E0,-4.566545616E0,2.114389433E0,6.988863637E0
5.216310208E0,1.299309205E0,-7.171478435E0,2.946691464E0,7.861380155E0
5.226352208E0,1.679858572E0,-5.611655892E0,4.492769250E0,7.382247775E0
5.236394208E0,3.692464644E0,-3.039052913E0,5.808092517E0,7.523568066E0
5.246436208E0,5.394849322E0,-1.940782092E0,3.731302435E0,6.840588586E0
5.256477208E0,6.573288978E0,-3.283047867E0,-1.678422788E0,7.536818582E0
5.266519208E0,5.688804055E0,-4.873490524E0,-4.931182662E0,8.968275415E0
5.276561208E0,7.884999543E-1,-3.636031997E0,-4.117045006E0,5.549100868E0
5.286603208E0,-3.461501965E0,-8.846802199E-1,-2.859189051E-1,3.584188132E0
5.296644208E0,-4.670359130E0,-5.146058482E-1,5.642748754E-1,4.732386260E0
5.306686208E0,-3.644098523E0,-3.426537369E0,-3.527278756E0,6.120646029E0
5.316728208E0,-2.033510453E0,-6.514487624E0,-4.972136561E0,8.443687331E0
5.326770208E0,-1.724688297E0,-7.534763605E0,-1.375025532E0,7.850981309E0
5.336812208E0,-3.374363541E0,-4.920127332E0,3.537884143E0,6.936180972E0
5.346853208E0,-5.028593767E0,-2.365562428E0,3.304323546E0,6.465384363E0
5.356895208E0,-5.772709846E0,-2.105434422E0,-2.815108647E0,6.758836421E0
5.366937208E0,-5.455705973E0,-2.021761351E0,-4.477349265E0,7.341587231E0
5.376979208E0,-4.430500204E0,-1.664893500E0,-1.445753306E0,4.948879171E0
5.387020208E0,-2.983642944E0,-1.713052922E0,4.733800542E-1,3.472861098E0
5.397062208E0,-2.305762077E0,-2.666906288E0,-8.121344000E-3,3.525477820E0
5.407104208E0,-1.612276453E0,-3.390455371E0,-1.851376995E0,4.185955060E0
5.417146208E0,-1.491608925E0,-2.968077071E0,-2.131692952E0,3.946960036E0
5.427187208E0,-2.391059504E0,-1.334571424E0,2.198611557E-2,2.738380877E0
5.437229208E0,-3.190471240E0,5.647825599E-1,1.748926760E0,3.681960196E0
5.447271208E0,-3.168195395E0,1.935435982E0,2.126197885E0,4.278328172E0
5.457313208E0,-2.220174919E0,2.933611827E0,7.099427582E-1,3.746901886E0
5.467354208E0,-1.632354768E0,3.365719895E0,5.649712788E-1,3.783099925E0
5.477396208E0,-2.099148811E0,3.029346535E0,2.247195341E0,4.316625194E0
5.487438208E0,-8.614062551E-1,2.814980593E0,1.668025269E0,3.383555049E0
5.497480208E0,3.227663040E-4,2.816048879E0,1.063788037E0,3.010278456E0
5.507521208E0,2.529892869E-1,2.526440966E0,1.105663895E0,2.769368191E0
5.517563208E0,4.564373083E-1,2.376987888E0,1.245089583E0,2.721884366E0
5.527605208E0,9.021522850E-1,2.296765258E0,2.828105253E-1,2.483745396E0
5.537647208E0,1.268454764E0,2.500789815E0,-1.007617052E-1,2.805900944E0
5.547688208E0,1.814723139E0,2.738874403E0,-2.039333403E-1,3.291844752E0
5.557730208E0,2.211728178E0,2.824343154E0,-5.446624370E-1,3.628403638E0
5.567772208E0,2.364463883E0,2.554032807E0,-1.006527496E0,3.623102349E0
5.577814208E0,2.303656787E0,1.956485374E0,-1.058615005E0,3.202395250E0
5.587856208E0,2.195739405E0,1.294575884E0,-7.433325523E-1,2.655134938E0
5.597897667E0,2.037300765E0,8.015374911E-1,-3.436196677E-1,2.216107225E0
5.607939667E0,2.118429859E0,4.769351614E-1,1.392561185E-1,2.175914631E0
5.617981667E0,2.523348373E0,4.229723775E-1,7.728786061E-1,2.672739042E0
5.628023667E0,2.904763420E0,6.968284768E-1,1.625364568E0,3.400739689E0
5.638064667E0,2.911109403E0,1.224615703E0,2.850915826E0,4.254640128E0
5.648106667E0,2.470591285E0,1.945204926E0,3.792933843E0,4.926864179E0
5.658148667E0,2.270252813E0,2.566056436E0,4.120484923E0,5.358832846E0
5.668190667E0,1.700888375E0,3.263745623E0,4.615582706E0,5.903275402E0
5.678231667E0,9.671414557E-1,3.791032913E0,4.674555384E0,6.095798650E0
5.688273667E0,1.425764599E-1,4.128403223E0,4.473089569E0,6.088724949E0
5.698315667E0,-8.543805331E-1,4.360335370E0,3.475043532E0,5.640781700E0
5.708357667E0,-2.148988577E0,3.819653279E0,1.891536841E0,4.773448931E0
5.718398667E0,-4.057063391E0,2.203456560E0,8.206654876E-1,4.689187138E0
5.728440667E0,-6.192562149E0,-4.595408642E-1,3.378953898E-1,6.218776172E0
5.738482667E0,-7.214375364E0,-3.420942169E0,1.315326483E0,8.091980040E0
5.748524667E0,-5.460014786E0,-5.623789449E0,3.645138450E0,8.644408803E0
5.758566667E0,-1.710992071E0,-5.793275088E0,4.363055495E0,7.451562478E0
5.768607667E0,1.309481899E0,-4.060149844E0,3.370398252E0,5.436832163E0
5.778649667E0,3.026552736E0,-1.852088016E0,3.490742136E0,4.977502601E0
5.788691667E0,3.772149037E0,-2.158382714E-1,3.656316572E0,5.257789022E0
5.798733667E0,4.201040844E0,4.597917098E-1,3.303700233E0,5.364194983E0
5.808774667E0,4.305015155E0,6.095383179E-1,2.409017766E0,4.970720174E0
5.818816667E0,4.075442652E0,8.576111197E-1,1.388602620E0,4.390096454E0
5.828858667E0,3.197501348E0,1.201869450E0,7.288120886E-1,3.492802901E0
5.838900667E0,1.795710040E0,1.414478889E0,7.940770286E-1,2.419893262E0
5.848941667E0,5.049122610E-1,1.217275109E0,7.010366448E-1,1.492698047E0
5.858983667E0,1.233901374E-1,2.707863110E-1,-1.069503982E-1,3.162099618E-1
5.869025667E0,1.224339715E-1,-1.358956068E0,-1.403545765E0,1.957470915E0
5.879067667E0,-2.299718687E-1,-3.897949251E0,-1.968406677E0,4.372816057E0
5.889108667E0,-2.471207289E-1,-6.759005318E0,-2.369953833E0,7.166721895E0
5.899150667E0,-1.236159861E-1,-9.753365039E0,-2.556696213E0,1.008365539E1
5.909192667E0,4.521121229E-1,-1.196011709E1,-2.774468159E0,1.228602783E1
5.919234667E0,2.443290343E0,-1.099967684E1,-2.015474863E0,1.144660199E1
5.929276667E0,4.766867424E0,-6.972817529E0,-1.406553572E0,8.562803413E0
5.939317667E0,5.925689964E0,-2.955516082E0,-1.650760049E0,6.824506253E0
5.949359667E0,5.068034406E0,-2.654969198E-1,-1.984575983E0,5.449220420E0
5.959401667E0,4.423926472E0,1.777292773E0,-1.029861907E0,4.877551699E0
5.969443667E0,2.987067950E0,3.604975095E0,2.402834335E-1,4.687873346E0
5.979484667E0,6.413094565E-1,4.601099153E0,2.235484099E-1,4.650953141E0
5.989526667E0,-1.615721340E0,4.934802673E0,-4.261415684E-1,5.210031623E0
5.999568667E0,-3.077524669E0,4.769136436E0,4.410706794E-1,5.693010080E0
6.009610667E0,-4.436776898E0,3.784118580E0,3.350568590E-1,5.840959319E0
6.019651667E0,-4.440265054E0,2.842166637E0,-1.214761098E0,5.410130264E0
6.029693667E0,-4.066492611E0,2.240373541E0,-2.105938160E0,5.098098792E0
6.039735667E0,-3.602316951E0,1.787199125E0,-2.776496558E0,4.886686123E0
6.049777667E0,-3.527432830E0,1.284752562E0,-2.436929449E0,4.475711860E0
6.059819667E0,-3.488596793E0,9.156043893E-1,-1.898614896E0,4.075951116E0
6.069860667E0,-3.581854912E0,7.740842289E-1,-1.793043125E0,4.079692961E0
6.079902667E0,-3.727388894E0,6.314016420E-1,-1.984915121E0,4.269892743E0
6.089944667E0,-3.991555865E0,6.537304044E-1,-2.418473883E0,4.712631705E0
6.099986667E0,-4.115925557E0,9.169100726E-1,-2.754355784E0,5.036669838E0
6.110027667E0,-3.984990611E0,1.149542717E0,-2.711001019E0,4.954909197E0
6.120069667E0,-3.809462459E0,1.215810381E0,-2.348596440E0,4.637467450E0
6.130111667E0,-3.581442099E0,1.222960941E0,-1.564062067E0,4.094954349E0
6.140153667E0,-3.384031620E0,1.410669428E0,-4.677632189E-1,3.696006043E0
6.150194667E0,-3.007038530E0,1.831487691E0,5.484290671E-1,3.563341455E0
6.160236667E0,-2.315557917E0,2.002949104E0,5.635917744E-1,3.113077138E0
6.170278667E0,-1.154213765E0,2.541997483E0,6.512970856E-1,2.866731329E0
6.180320667E0,4.056318748E-1,3.373405475E0,1.206636100E0,3.605602917E0
6.190362667E0,2.469514813E0,3.696493961E0,1.122531504E0,4.585046127E0
6.200403667E0,4.729325668E0,3.554963860E0,1.545477569E0,6.114964451E0
6.210445667E0,7.155334858E0,3.228582222E0,2.688738914E0,8.297703119E0
6.220487667E0,8.246436408E0,2.341342092E0,3.004163747E0,9.083534336E0
6.230529667E0,7.797950875E0,5.795228058E-1,2.013501866E0,8.074532450E0
6.240570667E0,5.531401688E0,-1.756223500E0,2.030415230E0,6.148439771E0
6.250612667E0,2.053709660E0,-4.175779703E0,2.204591797E0,5.149279997E0
6.260654667E0,9.019885629E-1,-4.490228342E0,3.289906066E0,5.639079345E0
6.270696667E0,1.822247336E0,-2.857790397E0,5.092644167E0,6.117399441E0
6.280737667E0,3.485830183E0,-1.195077324E0,5.803801246E0,6.874833145E0
6.290779667E0,5.157369336E0,-9.311761093E-1,3.014012505E0,6.045644613E0
6.300821667E0,7.074713448E0,-3.105581948E0,-2.741809413E0,8.198397921E0
6.310863667E0,7.131786951E0,-5.980479544E0,-7.231039343E0,1.178628231E1
6.320905667E0,2.639439870E0,-6.323335712E0,-6.091679553E0,9.168411920E0
6.330946667E0,-2.631775632E0,-3.782761441E0,-1.917159925E0,4.991094998E0
6.340988667E0,-2.915878100E0,-3.344146593E0,-3.372501495E-1,4.449651580E0
6.351030667E0,-2.408988822E0,-6.299679047E0,-2.055001748E0,7.050689003E0
6.361072667E0,-2.301927473E0,-7.468708779E0,-2.328829635E0,8.154994076E0
6.371113667E0,-3.770061581E0,-3.786975530E0,2.151459610E0,5.760497066E0
6.381155667E0,-5.578443707E0,5.915271395E-1,5.355501069E0,7.755664398E0
6.391197667E0,-5.710784324E0,1.075049189E0,1.045272975E0,5.904352966E0
6.401239667E0,-5.153027194E0,7.218539751E-1,-2.263682297E0,5.674418028E0
6.411281667E0,-4.410722582E0,1.436614108E-1,-1.826297410E0,4.776031252E0
6.421322667E0,-3.652480507E0,-1.440899532E0,-3.795372131E-1,3.944724808E0
6.431364667E0,-2.649355578E0,-3.662922172E0,4.657289726E-1,4.544555786E0
6.441406667E0,-1.484058708E0,-5.206462559E0,-4.890368512E-1,5.435884442E0
6.451448667E0,-1.081558895E0,-5.191755642E0,-3.336355178E0,6.265409975E0
6.461489667E0,-2.221336176E0,-4.071266570E0,-3.722143649E0,5.946755354E0
6.471531667E0,-3.100963233E0,-2.179948999E0,-1.657024610E0,4.136892695E0
6.481573667E0,-3.386565511E0,-4.094237942E-1,6.083342300E-1,3.465043194E0
6.491615667E0,-2.831820574E0,1.232187263E0,7.233460383E-1,3.171864232E0
6.501657667E0,-1.891223723E0,2.378098274E0,1.244178294E0,3.283299895E0
6.511698667E0,-1.849064713E0,3.016582648E0,2.316959202E0,4.229315681E0
6.521740667E0,-1.273415396E0,3.180311118E0,1.142657620E0,3.611319983E0
6.531782667E0,-5.111083362E-1,2.994643895E0,1.313027358E-1,3.040783484E0
6.541824667E0,-4.045203191E-1,2.462012250E0,2.765617521E-1,2.510304247E0
6.551865667E0,-4.906229085E-1,1.807259168E0,-5.456270814E-2,1.873465673E0
6.561907667E0,-1.378345142E-1,1.351088639E0,-5.504757388E-1,1.465422261E0
6.571949667E0,2.081917213E-1,1.315455122E0,-7.845812966E-1,1.545746998E0
6.581991667E0,7.731084748E-1,1.426907730E0,-7.372124179E-1,1.782482688E0
6.592033667E0,1.526395181E0,1.601592128E0,-6.073844960E-1,2.294318095E0
6.602075042E0,2.129280391E0,1.860991572E0,-4.336524631E-1,2.860975196E0
6.612117042E0,2.498356496E0,1.921430731E0,-2.316362786E-1,3.160274767E0
6.622159042E0,2.360813612E0,1.605124431E0,-3.827324241E-1,2.880338428E0
6.632201042E0,2.042533584E0,1.266308690E0,-1.870325482E-1,2.410490057E0
6.642242042E0,1.779244719E0,1.105789756E0,1.577735196E-1,2.100803475E0
6.652284042E0,1.615530282E0,1.167280830E0,5.363392910E-1,2.064011256E0
6.662326042E0,1.550432938E0,1.413767867E0,9.634783944E-1,2.308868228E0
6.672368042E0,1.397026412E0,1.775024053E0,1.331370658E0,2.622010872E0
6.682410042E0,1.236816650E0,2.146905214E0,1.532326012E0,2.913235389E0
6.692451042E0,1.104853909E0,2.401030469E0,1.985848337E0,3.305940576E0
6.702493042E0,1.027821448E0,2.747559273E0,2.511070390E0,3.861472956E0
6.712535042E0,8.885565584E-1,3.211299022E0,3.179010698E0,4.605223467E0
6.722577042E0,5.366548213E-1,3.981972570E0,4.202602050E0,5.814289977E0
6.732618042E0,-4.374538842E-1,4.863140953E0,4.902462308E0,6.919222681E0
6.742660042E0,-1.884537870E0,5.087733675E0,4.589945004E0,7.106624520E0
6.752702042E0,-3.455752398E0,3.959560193E0,3.791153950E0,6.480215261E0
6.762744042E0,-5.234538549E0,1.539718062E0,2.769460604E0,6.118908201E0
6.772786042E0,-6.274040176E0,-1.390861984E0,2.183559655E0,6.787194557E0
6.782827042E0,-5.476872894E0,-4.257466475E0,2.478361065E0,7.366439509E0
6.792869042E0,-2.362232293E0,-5.987062340E0,3.140219100E0,7.161426733E0
6.802911042E0,9.097291801E-1,-5.805278252E0,3.411511779E0,6.794650498E0
6.812953042E0,2.597677594E0,-3.691566512E0,3.580624366E0,5.761637184E0
6.822994042E0,3.837366834E0,-8.427515906E-1,3.586619516E0,5.319723115E0
6.833036042E0,5.006680741E0,8.371511275E-1,3.783960121E0,6.331352798E0
6.843078042E0,5.296575168E0,1.407535905E0,3.272960250E0,6.383348231E0
6.853120042E0,4.877676546E0,1.600757731E0,1.724673094E0,5.415593327E0
6.863162042E0,3.845469906E0,1.935648821E0,2.034806927E-1,4.309962824E0
6.873203042E0,1.867606234E0,2.253131581E0,-2.294454000E-1,2.935506798E0
6.883245042E0,-6.688001409E-2,2.305743073E0,-4.271056281E-1,2.345920560E0
6.893287042E0,-1.275559570E0,1.748255500E0,-7.845174158E-1,2.301937680E0
6.903329042E0,-1.885728948E0,5.855933851E-1,-1.235869401E0,2.329434793E0
6.913370042E0,-2.325900034E0,-1.147295632E0,-1.330386718E0,2.914794513E0
6.923412042E0,-3.048105865E0,-3.947721920E0,-9.315836602E-1,5.073786144E0
6.933454042E0,-2.700597945E0,-7.186301712E0,-5.821546376E-2,7.677209818E0
6.943496042E0,-1.134805833E0,-1.023560479E1,5.859393941E-1,1.031497527E1
6.953538042E0,1.472549926E0,-1.255369368E1,8.581794691E-1,1.266886342E1
6.963579042E0,5.024057497E0,-1.220751512E1,-3.993888026E-1,1.320697129E1
6.973621042E0,7.509882533E0,-8.128435503E0,-2.610792021E0,1.137040168E1
6.983663042E0,8.302450395E0,-3.665116632E0,-3.548237808E0,9.744421688E0
6.993705042E0,7.042062596E0,-1.101513687E0,-3.826329338E0,8.089794448E0
7.003747042E0,5.246162814E0,1.045292709E0,-2.363119754E0,5.848007873E0
7.013788042E0,3.776904578E0,2.933834606E0,-9.890714380E-1,4.883713341E0
7.023830042E0,1.818997746E0,4.034948929E0,-1.773546608E0,4.768126805E0
7.033872042E0,-5.102952808E-1,4.204193662E0,-1.180495830E0,4.396500430E0
7.043914042E0,-2.441333280E0,4.032595425E0,-1.114362359E-1,4.715331598E0
7.053955042E0,-3.466503088E0,3.206232995E0,-5.930386448E-1,4.759019701E0
7.063997042E0,-3.834636769E0,2.497204887E0,-1.551699591E0,4.832001968E0
7.074039042E0,-3.596145215E0,2.147920876E0,-2.371622483E0,4.813566006E0
7.084081042E0,-3.807069194E0,1.854876553E0,-1.935419318E0,4.656199181E0
7.094123042E0,-4.028469922E0,1.539233912E0,-1.162859166E0,4.466548151E0
7.104164042E0,-4.162686033E0,1.445286698E0,-9.858291569E-1,4.515381243E0
7.114206042E0,-4.380713209E0,1.465117530E0,-1.183221217E0,4.768357164E0
7.124248042E0,-4.646683461E0,1.490429542E0,-1.606485078E0,5.137493719E0
7.134290042E0,-4.711677017E0,1.676723587E0,-2.044987953E0,5.403080420E0
7.144332042E0,-4.568190146E0,1.861040688E0,-2.291654499E0,5.439072899E0
7.154373042E0,-4.407541696E0,1.958691528E0,-2.171412357E0,5.289416597E0
7.164415042E0,-4.303548381E0,1.769811260E0,-1.851995630E0,5.008258019E0
7.174457042E0,-4.263599912E0,1.441974835E0,-1.252151119E0,4.671772475E0
7.184499042E0,-4.146747400E0,1.184608469E0,-3.260006914E-1,4.324937881E0
7.194540042E0,-3.874999807E0,1.231438234E0,6.066921857E-1,4.110977868E0
7.204582042E0,-3.263624878E0,1.529234004E0,1.033469346E0,3.749381666E0
7.214624042E0,-2.020840414E0,1.858562638E0,6.855801880E-1,2.829853575E0
7.224666042E0,-1.155570611E-1,2.513375362E0,5.152452412E-1,2.568245861E0
7.234708042E0,2.058683302E0,3.068639824E0,4.567195827E-1,3.723347967E0
7.244749042E0,4.564192697E0,2.990772454E0,4.643285644E-1,5.476511285E0
7.254791042E0,7.097808196E0,2.438231624E0,1.815943453E0,7.721496310E0
7.264833042E0,8.951463266E0,1.690229486E0,3.112852961E0,9.626807564E0
7.274875042E0,9.398227379E0,9.982074201E-2,2.507779284E0,9.727569018E0
7.284917042E0,8.000904222E0,-2.075384996E0,2.264699128E0,8.570329829E0
7.294958042E0,4.882154928E0,-4.044855866E0,2.617511057E0,6.859129672E0
7.305000042E0,2.554455853E0,-4.422322288E0,3.690314331E0,6.300841133E0
7.315042042E0,2.092879865E0,-2.900413091E0,5.473532379E0,6.538508923E0
7.325084042E0,3.361646140E0,-1.488164915E0,5.532419688E0,6.642512114E0
7.335126042E0,5.359339181E0,-2.314498109E0,2.890262032E0,6.514064213E0
7.345167042E0,6.513470208E0,-4.244959280E0,-1.194700179E0,7.865893589E0
7.355209042E0,5.929632157E0,-5.404932845E0,-4.360713685E0,9.131793932E0
7.365251042E0,1.778611027E0,-4.358430932E0,-2.897673963E0,5.527738396E0
7.375293042E0,-1.736477453E0,-2.103101383E0,1.914401793E-1,2.734051703E0
7.385334042E0,-2.627826715E0,-3.073710530E0,1.676417193E-1,4.047378585E0
7.395376042E0,-3.082268222E0,-5.788915404E0,-3.565354070E0,7.464828772E0
7.405418042E0,-2.392041544E0,-6.240875938E0,-2.465020058E0,7.123673147E0
7.415460042E0,-3.300959350E0,-3.374895930E0,2.409859765E0,5.300347088E0
7.425502042E0,-6.624079648E0,-3.159554672E-1,5.155404087E0,8.399788708E0
7.435543042E0,-7.739927784E0,7.918235117E-1,2.844316366E0,8.283936393E0
7.445585042E0,-7.897251799E0,3.017835706E-1,-2.398265467E0,8.258894390E0
7.455627042E0,-7.233687547E0,-8.668742788E-1,-3.776880312E0,8.206249536E0
7.465669042E0,-5.415418657E0,-2.195280399E0,-9.787749298E-1,5.924864186E0
7.475711042E0,-3.133793887E0,-4.140808091E0,4.389148110E-1,5.211487501E0
7.485752042E0,-5.491158226E-1,-5.645148159E0,-6.342540599E-1,5.707145007E0
7.495794042E0,1.130064764E0,-5.034067345E0,-3.280004683E0,6.113698646E0
7.505836042E0,6.087466049E-1,-2.916000599E0,-3.244935130E0,4.404910433E0
7.515878042E0,-1.173308725E0,1.964196682E-2,-1.087911894E0,1.600184821E0
7.525920042E0,-2.005026327E0,2.082325056E0,8.355552761E-1,3.009046499E0
7.535961042E0,-2.205871753E0,3.412961304E0,2.086230850E0,4.567990172E0
7.546003042E0,-1.812702341E0,4.196533225E0,1.441213528E0,4.793107272E0
7.556045042E0,-1.540565177E0,4.064335281E0,1.337640043E0,4.547685480E0
7.566087042E0,-1.066138617E0,3.310164914E0,1.009365077E0,3.621140866E0
7.576128042E0,-4.518068983E-1,3.043820733E0,9.273450136E-1,3.213867281E0
7.586170042E0,-7.558669361E-1,2.174715741E0,1.049000428E0,2.530044521E0
7.596211667E0,-9.674849796E-1,1.297876053E0,7.449545699E-1,1.781983935E0
7.606253667E0,-5.221624973E-1,6.328698778E-1,5.827335119E-2,8.225410259E-1
7.616295667E0,-2.991435528E-1,5.208898509E-1,-6.980815351E-2,6.047200015E-1
7.626336667E0,5.215673970E-1,1.255615302E0,5.977462381E-3,1.359646302E0
7.636378667E0,1.003649131E0,1.794405234E0,-1.585131778E0,2.596121044E0
7.646420667E0,1.046685369E0,2.141749139E0,-2.423340082E0,3.399296514E0
7.656462667E0,8.044992520E-1,2.274437665E0,-1.743769370E0,2.976746102E0
7.666504667E0,8.660207315E-1,1.993215244E0,-1.270505090E0,2.517356173E0
7.676545667E0,8.666424367E-1,1.486076875E0,-5.403049457E-1,1.803170271E0
7.686587667E0,6.958856133E-1,9.227268827E-1,3.107385814E-2,1.156134625E0
7.696629667E0,6.986206484E-1,6.290814668E-1,4.312374169E-1,1.034301703E0
7.706671667E0,9.496755302E-1,4.581743699E-1,1.001782992E0,1.454433405E0
7.716713667E0,1.244624437E0,4.742454422E-1,1.772733114E0,2.217336560E0
7.726754667E0,1.517804013E0,7.302494073E-1,2.389593315E0,2.923550826E0
7.736796667E0,1.844940965E0,1.208500192E0,2.806300986E0,3.569258340E0
7.746838667E0,2.160089955E0,1.809572911E0,3.214602699E0,4.274834880E0
7.756880667E0,2.230078641E0,2.431778052E0,4.016377587E0,5.197892281E0
7.766922667E0,1.885385571E0,3.031523454E0,4.967370495E0,6.117154799E0
7.776963667E0,1.682574311E0,3.733837203E0,5.246606033E0,6.655784810E0
7.787005667E0,7.187141664E-1,4.659240357E0,5.154788375E0,6.985478791E0
7.797047667E0,-7.698240937E-1,5.260396106E0,4.320908180E0,6.850886354E0
7.807089667E0,-2.163653394E0,4.454844502E0,2.626486825E0,5.605842362E0
7.817130667E0,-3.509674543E0,1.807511183E0,1.087814246E0,4.094905605E0
7.827172667E0,-4.824894315E0,-1.662282134E0,6.804206049E-1,5.148374427E0
7.837214667E0,-4.949348207E0,-4.621623464E0,1.649379668E0,6.969641627E0
7.847256667E0,-3.387455750E0,-6.644915031E0,2.804657333E0,7.968428640E0
7.857298667E0,-8.568192606E-1,-6.661127021E0,2.872862765E0,7.304662409E0
7.867339667E0,9.924311750E-1,-4.381795236E0,2.402757736E0,5.094928250E0
7.877381667E0,2.648005456E0,-1.705263847E0,2.524031328E0,4.036160530E0
7.887423667E0,4.165412297E0,-5.432648063E-3,2.897678348E0,5.074172733E0
7.897465667E0,4.994316804E0,8.608908230E-1,2.536081270E0,5.667101689E0
7.907507667E0,5.165458959E0,1.480419109E0,1.347072771E0,5.539694219E0
7.917548667E0,4.539871788E0,2.312006611E0,6.227453508E-1,5.132603841E0
7.927590667E0,2.840359263E0,2.927359985E0,5.284892578E-1,4.112952482E0
7.937632667E0,8.249693307E-1,2.848999109E0,6.734817141E-1,3.041537101E0
7.947674667E0,-6.003863291E-1,2.039787732E0,4.145681014E-1,2.166348182E0
7.957716667E0,-1.132049894E0,5.755367589E-1,-4.278150415E-1,1.340076577E0
7.967757667E0,-1.551842410E0,-1.445497198E0,-1.109649357E0,2.393532684E0
7.977799667E0,-2.410607331E0,-4.361965574E0,-1.105748826E0,5.104943862E0
7.987841667E0,-2.812124813E0,-7.446062513E0,-7.829053384E-1,7.997801803E0
7.997883667E0,-2.536980572E0,-9.860035794E0,-5.932234168E-1,1.019845529E1
8.007925667E0,-1.856744154E0,-1.143195915E1,-1.304515566E0,1.165499677E1
8.017966667E0,-7.475143348E-1,-1.106348633E1,-3.339795095E0,1.158074863E1
8.028008667E0,3.079135576E0,-7.447204474E0,-2.318903986E0,8.385657164E0
8.038050667E0,5.641022948E0,-3.856733397E0,-1.768827758E0,7.058631881E0
8.048092667E0,6.841767978E0,-1.207744732E0,-1.806637024E0,7.178605278E0
8.058134667E0,6.852742617E0,1.048356065E0,-1.585847477E0,7.111543014E0
8.068175667E0,5.586418725E0,3.520472304E0,-8.057802308E-1,6.652148615E0
8.078217667E0,3.212419641E0,4.869255971E0,-1.203305818E0,5.956277239E0
8.088259667E0,1.766338599E-1,5.449327830E0,-1.465256694E0,5.645648811E0
8.098301667E0,-1.347475937E0,5.249742479E0,-1.073271343E0,5.525160529E0
8.108343667E0,-2.709224927E0,3.665704862E0,-1.760395489E0,4.886336472E0
8.118384667E0,-3.980516614E0,2.310211515E0,-2.126258696E0,5.069769797E0
8.128426667E0,-3.960876986E0,1.676777966E0,-2.609117087E0,5.030668227E0
8.138468667E0,-4.209794710E0,1.179958763E0,-1.981427549E0,4.800075970E0
8.148510667E0,-4.191132737E0,9.184999305E-1,-1.560130692E0,4.565440123E0
8.158552667E0,-4.249484441E0,8.278406060E-1,-1.464535732E0,4.570372303E0
8.168593667E0,-4.423832039E0,8.778664595E-1,-1.573886851E0,4.776825227E0
8.178635667E0,-4.616534925E0,1.099254323E0,-1.678661062E0,5.033751855E0
8.188677667E0,-4.741064831E0,1.406644204E0,-1.956737389E0,5.318379909E0
8.198719667E0,-4.615002954E0,1.753405727E0,-2.204430707E0,5.406680928E0
8.208761667E0,-4.371676045E0,1.779953840E0,-2.112018387E0,5.171112915E0
8.218802667E0,-4.156685035E0,1.777638343E0,-1.593818840E0,4.793567258E0
8.228844667E0,-3.831335139E0,1.858611170E0,-7.645442042E-1,4.326441063E0
8.238886667E0,-3.351722245E0,1.930234884E0,-9.147676528E-3,3.867807182E0
8.248928667E0,-2.584327523E0,1.977418991E0,1.559940657E-1,3.257801216E0
8.258970667E0,-1.500743153E0,2.231542491E0,1.452194014E-1,2.693158105E0
8.269011667E0,4.723053360E-1,2.678018922E0,1.456079489E-1,2.723244269E0
8.279053667E0,2.463503290E0,3.070266520E0,2.752763879E-1,3.946031178E0
8.289095667E0,4.763246828E0,2.957247443E0,7.515060827E-1,5.656729989E0
8.299137667E0,7.240269758E0,2.402437309E0,2.364964843E0,7.986630698E0
8.309179667E0,8.957218680E0,1.709656275E0,3.580172084E0,9.796546494E0
8.319220667E0,9.183319985E0,2.968298095E-1,3.726709448E0,9.915131728E0
8.329262667E0,7.126054341E0,-2.133978190E0,2.680582633E0,7.906961277E0
8.339304667E0,3.973117547E0,-4.090755340E0,2.506854255E0,6.229306586E0
8.349346667E0,2.878440132E0,-3.752517888E0,3.684922028E0,5.995453148E0
8.359388667E0,3.300848838E0,-1.896151464E0,5.706845055E0,6.859961655E0
8.369429667E0,4.585409904E0,-5.124458867E-1,6.020156411E0,7.584910545E0
8.379471667E0,5.895739356E0,-9.871678770E-1,1.705423476E0,6.216326263E0
8.389513667E0,7.188598498E0,-3.674000307E0,-3.687487494E0,8.875347353E0
8.399555667E0,5.564677023E0,-5.806261754E0,-6.105946759E0,1.009756861E1
8.409597667E0,1.014614415E0,-4.700617009E0,-2.959102764E0,5.646373335E0
8.419638667E0,-2.795933288E0,-2.064629043E0,1.562136286E-1,3.479129019E0
8.429680667E0,-2.640419863E0,-2.850243981E0,-1.117605517E0,4.042864071E0
8.439722667E0,-2.062975743E0,-6.201203749E0,-4.419636662E0,7.889485730E0
8.449764667E0,-1.455879514E0,-7.323112525E0,-3.142860872E0,8.100934308E0
8.459806667E0,-3.259681224E0,-4.676945726E0,1.545166790E0,5.906511949E0
8.469847667E0,-5.663234181E0,-1.029542649E0,4.117817423E0,7.077329990E0
8.479889667E0,-6.661707065E0,5.597334892E-1,1.994590947E0,6.976391306E0
8.489931667E0,-6.830500978E0,-4.913345146E-1,-2.441068693E0,7.270211110E0
8.499973667E0,-6.034092665E0,-1.949710205E0,-3.973543224E0,7.483360871E0
8.510015667E0,-4.833305827E0,-3.295452150E0,-1.652357801E0,6.078744640E0
8.520056667E0,-3.204456903E0,-5.083679216E0,-2.196683438E-1,6.013367825E0
8.530098667E0,-1.362069125E0,-6.433628817E0,-1.023500721E0,6.655401249E0
8.540140667E0,-3.801134562E-1,-5.632166170E0,-2.885985671E0,6.339928652E0
8.550182667E0,-1.644988116E0,-2.875085292E0,-2.589163463E0,4.204267924E0
8.560224667E0,-3.436643405E0,-1.320131725E-1,-4.715908062E-1,3.471360433E0
8.570265667E0,-3.922165495E0,1.810609038E0,8.163379633E-1,4.396372928E0
8.580307667E0,-3.179985136E0,3.074722683E0,1.466507560E0,4.660136207E0
8.590349667E0,-2.077929119E0,3.791849184E0,1.771946079E0,4.672868773E0
8.600391042E0,-1.125960019E0,3.801928614E0,1.215601051E0,4.147304313E0
8.610433042E0,-1.677390754E-1,3.626365964E0,5.641990077E-1,3.673824577E0
8.620474042E0,-3.359810114E-2,3.022770172E0,1.158327574E0,3.237281438E0
8.630516042E0,-9.593468249E-2,2.360311629E0,9.883941843E-1,2.560702542E0
8.640558042E0,1.719188114E-1,1.927773206E0,4.821239805E-1,1.994569915E0
8.650600042E0,2.176259114E-1,1.452652436E0,8.681999888E-1,1.706262394E0
8.660642042E0,7.415592380E-1,1.317949544E0,6.751898320E-1,1.656134781E0
8.670683042E0,1.323561263E0,1.459469705E0,-5.862031035E-1,2.055602178E0
8.680725042E0,1.648323222E0,1.803459063E0,-1.049956887E0,2.659293797E0
8.690767042E0,1.679410529E0,2.349831664E0,-9.896791099E-1,3.053128447E0
8.700809042E0,1.580329752E0,2.763557839E0,-8.756812088E-1,3.301743727E0
8.710851042E0,1.432365521E0,2.681106251E0,-8.208385652E-1,3.148615198E0
8.720892042E0,1.260351400E0,2.273720797E0,-4.521003554E-1,2.638690328E0
8.730934042E0,1.214509814E0,1.476368158E0,-2.308534095E-1,1.925614272E0
8.740976042E0,1.469684059E0,8.608534008E-1,5.989565387E-1,1.805488507E0
8.751018042E0,1.980224777E0,6.527217597E-1,1.768768117E0,2.734204915E0
8.761060042E0,2.095192000E0,8.535800493E-1,2.615074815E0,3.457895994E0
8.771101042E0,1.891498250E0,1.545716136E0,2.893196458E0,3.786500989E0
8.781143042E0,1.744474105E0,2.379764146E0,2.933311865E0,4.160623246E0
8.791185042E0,1.737615029E0,3.084549513E0,3.147772533E0,4.737322409E0
8.801227042E0,1.794405234E0,3.570954825E0,3.515219750E0,5.322441019E0
8.811269042E0,1.721027648E0,3.949714651E0,3.938567519E0,5.837336387E0
8.821310042E0,1.063598295E0,4.366000153E0,4.710363733E0,6.510048015E0
8.831352042E0,-2.681905858E-1,4.430645215E0,4.439783244E0,6.278074423E0
8.841394042E0,-2.515902236E0,3.339773460E0,3.153671204E0,5.237317337E0
8.851436042E0,-4.590921489E0,9.938132375E-1,1.731280448E0,5.006151901E0
8.861478042E0,-5.673850971E0,-2.143428460E0,6.336393714E-1,6.098226730E0
8.871519042E0,-5.719765647E0,-5.107673850E0,1.105268769E0,7.747623524E0
8.881561042E0,-3.718437099E0,-6.604658706E0,2.130075173E0,7.873087788E0
8.891603042E0,-6.311830292E-1,-6.116219147E0,2.503200037E0,6.638715170E0
8.901645042E0,1.727633539E0,-3.992761268E0,2.343250623E0,4.941425267E0
8.911687042E0,3.299598411E0,-8.972248363E-1,2.764067717E0,4.396866205E0
8.921728042E0,4.462301456E0,1.645646220E0,3.568786093E0,5.946134874E0
8.931770042E0,5.165524448E0,2.880133193E0,3.931456720E0,7.101701343E0
8.941812042E0,5.394745241E0,3.176657193E0,3.332368546E0,7.092186353E0
8.951854042E0,5.094390146E0,3.148926773E0,2.174409932E0,6.371546855E0
8.961896042E0,3.864627138E0,3.064489471E0,1.411038387E0,5.130055357E0
8.971938042E0,1.878808915E0,2.573922696E0,1.213972601E0,3.410092441E0
8.981979042E0,3.003232285E-1,1.237250952E0,1.027907183E0,1.636330387E0
8.992021042E0,-1.175885300E-1,-7.698929447E-1,1.392735871E-1,7.911759228E-1
9.002063042E0,-3.470132455E-1,-3.188492543E0,-5.865599298E-1,3.260514597E0
9.012105042E0,-9.697493139E-1,-6.607218032E0,-6.407343829E-1,6.708672328E0
9.022147042E0,-1.429159785E0,-1.016095690E1,-9.539843434E-1,1.030522338E1
9.032188042E0,-6.665682587E-1,-1.305711790E1,-9.156977986E-1,1.310614907E1
9.042230042E0,1.021797573E0,-1.433807211E1,-1.682011955E0,1.447251002E1
9.052272042E0,3.040669376E0,-1.167721827E1,-2.552027212E0,1.233352909E1
9.062314042E0,4.870720114E0,-6.232196916E0,-3.260515037E0,8.555416479E0
9.072356042E0,5.626655754E0,-1.810438299E0,-3.233572236E0,6.737427641E0
9.082397042E0,5.478897200E0,9.880268329E-1,-2.455148789E0,6.084592601E0
9.092439042E0,4.032223542E0,2.928389094E0,-1.216467901E0,5.129725483E0
9.102481042E0,2.311417065E0,4.804508582E0,7.702914324E-1,5.386956512E0
9.112523042E0,-3.419782081E-1,5.689293467E0,4.207969210E-1,5.715074742E0
9.122565042E0,-2.238576984E0,5.209973812E0,-4.674248113E-1,5.689775038E0
9.132606042E0,-3.863077334E0,4.101932877E0,-5.556325445E-1,5.661973803E0
9.142648042E0,-4.750509253E0,3.358535421E0,-2.467852449E-1,5.823057727E0
9.152690042E0,-4.684772809E0,2.666905704E0,-1.445053979E0,5.581009165E0
9.162732042E0,-3.596335542E0,2.275100155E0,-3.239096686E0,5.348033039E0
9.172774042E0,-3.068243968E0,1.943519173E0,-3.109351063E0,4.781155912E0
9.182815042E0,-3.069882065E0,1.763343655E0,-2.621279295E0,4.405072290E0
9.192857042E0,-3.251654166E0,1.657335974E0,-2.087357462E0,4.204411793E0
9.202899042E0,-3.342022007E0,1.545379921E0,-2.045707745E0,4.212152700E0
9.212941042E0,-3.580135831E0,1.415875788E0,-2.271881263E0,4.470293199E0
9.222983042E0,-3.805637796E0,1.350915561E0,-2.513335893E0,4.756543829E0
9.233024042E0,-3.911291428E0,1.417202522E0,-2.485579453E0,4.846108628E0
9.243066042E0,-4.030018557E0,1.384673291E0,-2.427284760E0,4.904088192E0
9.253108042E0,-4.226826480E0,1.465509878E0,-1.740195698E0,4.800214825E0
9.263150042E0,-4.293032164E0,1.530463673E0,-7.205886376E-1,4.614292167E0
9.273192042E0,-3.938859880E0,1.920953599E0,2.581080857E-1,4.389908845E0
9.283234042E0,-3.213911266E0,2.328161298E0,7.050920543E-1,4.030721457E0
9.293275042E0,-2.110338774E0,2.777518067E0,8.380156383E-1,3.587534887E0
9.303317042E0,-8.717204511E-2,3.575764745E0,9.905937606E-1,3.711464465E0
9.313359042E0,2.445944979E0,4.103951336E0,8.899044147E-1,4.859731811E0
9.323401042E0,5.024889556E0,3.841675063E0,1.457599180E0,6.490961231E0
9.333443042E0,7.865673326E0,3.066819586E0,3.200577568E0,9.028726157E0
9.343484042E0,9.980649819E0,1.309005643E0,3.304359798E0,1.059460524E1
9.353526042E0,1.030510948E1,-1.365165811E0,3.179117117E0,1.087040683E1
9.363568042E0,7.870216028E0,-4.756331618E0,2.730984170E0,9.592771515E0
9.373610042E0,3.817058870E0,-7.235961530E0,1.274283122E0,8.279666367E0
9.383652042E0,2.600879529E0,-6.546663097E0,2.175173871E0,7.372567626E0
9.393693042E0,2.635906397E0,-2.983752871E0,5.777509825E0,7.016438093E0
9.403735042E0,3.115077242E0,3.267657995E-2,7.122661786E0,7.774129205E0
9.413777042E0,3.373037978E0,1.072463551E0,3.613166752E0,5.057918272E0
9.423819042E0,4.002599501E0,-5.624103445E-1,-2.636598415E0,4.825842866E0
9.433861042E0,2.971885655E0,-3.306941344E0,-7.015377658E0,8.305629963E0
9.443903042E0,-9.129634944E-1,-3.239797182E0,-4.220960553E0,5.398730973E0
9.453944042E0,-4.203204314E0,-1.597033054E0,1.802439308E-1,4.499992106E0
9.463986042E0,-3.817421105E0,-3.582297254E0,-1.126238346E0,5.354808150E0
9.474028042E0,-2.386383778E0,-8.109809783E0,-4.656069412E0,9.651053031E0
9.484070042E0,-9.058652669E-1,-9.472381184E0,-1.391021613E0,9.616732205E0
9.494112042E0,-2.208706775E0,-5.336840265E0,4.089425098E0,7.076980095E0
9.504153042E0,-5.209342897E0,-7.030861670E-1,3.818125402E0,6.496896579E0
9.514195042E0,-7.060850285E0,5.390822929E-1,-1.686525567E-1,7.083407382E0
9.524237042E0,-7.363160105E0,-5.239806890E-2,-3.195291100E0,8.026752612E0
9.534279042E0,-6.324703960E0,-7.191934919E-1,-2.487623640E0,6.834280565E0
9.544321042E0,-4.276229897E0,-1.767503364E0,-7.586674601E-1,4.688900361E0
9.554362042E0,-2.163135623E0,-3.862523895E0,-4.990303275E-1,4.455028376E0
9.564404042E0,-1.087047091E-1,-5.419509369E0,-1.538782215E0,5.634780317E0
9.574446042E0,4.342466864E-1,-5.575431222E0,-2.708823808E0,6.213833753E0
9.584488042E0,-5.055078730E-1,-3.890180640E0,-2.555349600E0,4.681757704E0
9.594530042E0,-2.014547641E0,-1.326285920E0,-5.316995984E-1,2.469846351E0
9.604571917E0,-2.758269910E0,9.293471003E-1,5.773049569E-1,2.967325385E0
9.614613917E0,-2.781393601E0,2.263596928E0,9.307878542E-1,3.704913959E0
9.624655917E0,-2.259594508E0,3.154982150E0,1.142647095E0,4.045407531E0
9.634697917E0,-2.242836096E0,3.532388930E0,1.943493884E0,4.613594454E0
9.644739917E0,-1.920054735E0,3.097408125E0,1.789288335E0,4.059815270E0
9.654781917E0,-9.385528104E-1,3.039071040E0,2.636016910E-1,3.191601481E0
9.664822917E0,-7.629758348E-1,2.638168393E0,2.822268270E-1,2.760745656E0
9.674864917E0,-3.943634132E-1,1.972082822E0,5.348119251E-1,2.081023054E0
9.684906917E0,2.295751351E-1,1.481103233E0,4.335229473E-1,1.560228725E0
9.694948917E0,6.185475616E-1,1.356480941E0,-3.890751913E-2,1.491360260E0
9.704990917E0,7.422136876E-1,1.602655152E0,-3.463310216E-1,1.799813843E0
9.715031917E0,8.086725560E-1,1.984423955E0,-6.738916039E-1,2.246334710E0
9.725073917E0,9.621704453E-1,2.251680302E0,-1.248393406E0,2.748512733E0
9.735115917E0,8.450567092E-1,2.141153308E0,-1.680569154E0,2.850082633E0
9.745157917E0,8.814319454E-1,1.672998326E0,-1.549164823E0,2.444536218E0
9.755199917E0,9.178713548E-1,1.131832085E0,-1.116564420E0,1.835823466E0
9.765240917E0,1.178493889E0,8.423849702E-1,-6.637708046E-1,1.593440293E0
9.775282917E0,1.461871010E0,7.538943779E-1,1.629877011E-1,1.652872824E0
9.785324917E0,1.618045462E0,9.238296676E-1,1.063237887E0,2.145228933E0
9.795366917E0,1.589357122E0,1.479088867E0,2.036331443E0,2.976643358E0
9.805408917E0,1.455681147E0,2.229110050E0,2.802230154E0,3.865285637E0
9.815449917E0,1.451913055E0,2.995418066E0,3.464462995E0,4.804485899E0
9.825491917E0,1.337323855E0,3.717959674E0,4.493760645E0,5.983773389E0
9.835533917E0,7.465064210E-1,4.279986441E0,5.279342254E0,6.837178542E0
9.845575917E0,2.473370759E-1,5.220017574E0,5.210363821E0,7.379542685E0
9.855617917E0,-1.044687668E0,5.468730646E0,4.105207903E0,6.917450334E0
9.865659917E0,-2.816495899E0,4.215363014E0,2.782149646E0,5.782931016E0
9.875700917E0,-4.631075196E0,1.639977345E0,2.453380006E0,5.491398421E0
9.885742917E0,-5.386982478E0,-1.309076394E0,2.259625499E0,5.986582382E0
9.895784917E0,-5.381915281E0,-4.175726493E0,2.951445251E0,7.423795047E0
9.905826917E0,-3.618580981E0,-6.138049142E0,4.002648910E0,8.172574496E0
9.915868917E0,-6.862220661E-1,-6.444663683E0,3.698873777E0,7.462322556E0
9.925909917E0,1.692097525E0,-4.812645568E0,3.513993589E0,6.194586535E0
9.935951917E0,3.121428487E0,-2.173039345E0,3.885861887E0,5.437401806E0
9.945993917E0,4.088471125E0,-2.467741352E-1,3.832952771E0,5.609636402E0
9.956035917E0,4.729752223E0,6.753838134E-1,3.332020052E0,5.824865407E0
9.966077917E0,5.067674802E0,9.710693228E-1,2.203277489E0,5.610591343E0
9.976118917E0,4.792036471E0,1.116120617E0,1.162906455E0,5.055857019E0
9.986160917E0,3.651849300E0,1.276739538E0,9.168784976E-1,3.975768270E0
9.996202917E0,2.044469013E0,1.475809164E0,1.149208841E0,2.771019161E0
1.000624492E1,5.074286833E-1,1.529404158E0,1.238098798E0,2.032104717E0
1.001628692E1,-5.430203927E-1,1.107053339E0,6.548394019E-1,1.396156469E0
1.002632892E1,-1.277221933E0,-3.877639532E-2,1.460400581E-2,1.277893874E0
1.003636992E1,-1.796542537E0,-2.180154237E0,-1.120461005E-1,2.827223357E0
1.004641192E1,-2.393350882E0,-5.359553189E0,-1.566919309E-1,5.871753673E0
1.005645392E1,-2.240083081E0,-8.841663666E0,-7.773702179E-1,9.154086139E0
1.006649592E1,-9.706401372E-1,-1.185286512E1,-1.786018572E0,1.202590604E1
1.007653792E1,1.049065917E0,-1.325987361E1,-2.769838334E0,1.358664019E1
1.008657892E1,3.186357724E0,-1.073658488E1,-4.215438443E0,1.196649705E1
1.009662092E1,5.365729603E0,-6.059670140E0,-5.184398090E0,9.611900953E0
1.010666292E1,6.308260421E0,-2.260844058E0,-5.020014147E0,8.372938996E0
1.011670492E1,5.842468883E0,6.511131907E-1,-3.088175080E0,6.640422905E0
1.012674692E1,4.845879387E0,3.022721640E0,-2.027567197E0,6.060562836E0
1.013678792E1,3.061117674E0,5.189097497E0,-6.778677106E-3,6.024717437E0
1.014682992E1,3.313590798E-1,6.387349859E0,-4.679877520E-2,6.396110317E0
1.015687192E1,-2.266548894E0,6.147578934E0,-4.037180811E-2,6.552221038E0
1.016691392E1,-3.542216637E0,5.008704463E0,3.758366565E-1,6.146191690E0
1.017695592E1,-4.387196310E0,3.482640819E0,-1.685980314E-1,5.603989992E0
1.018699692E1,-4.611239394E0,2.863708364E0,-1.548436260E0,5.644644293E0
1.019703892E1,-4.241021765E0,2.622510134E0,-2.464407270E0,5.562115444E0
1.020708092E1,-3.974410074E0,2.244318658E0,-2.385476875E0,5.150087533E0
1.021712292E1,-3.804569802E0,1.803723941E0,-2.088489776E0,4.699995848E0
1.022716492E1,-3.749036456E0,1.445272080E0,-1.880995481E0,4.436465906E0
1.023720692E1,-3.705508321E0,1.173816263E0,-1.916084915E0,4.333591805E0
1.024724792E1,-3.633465069E0,8.494343734E-1,-2.397089738E0,4.435047505E0
1.025728992E1,-3.534176131E0,6.670760894E-1,-2.740833220E0,4.521897630E0
1.026733192E1,-3.511628098E0,5.632219380E-1,-2.710782917E0,4.471811141E0
1.027737392E1,-3.654242857E0,4.912193245E-1,-2.365166279E0,4.380502119E0
1.028741592E1,-3.945152653E0,3.626712120E-1,-1.734052905E0,4.324661761E0
1.029745692E1,-4.160923682E0,3.877452421E-1,-9.062482595E-1,4.276086782E0
1.030749892E1,-4.050742551E0,7.195431554E-1,-2.419677240E-1,4.121262664E0
1.031754092E1,-3.448212121E0,1.408018885E0,8.418294847E-2,3.725556439E0
1.032758292E1,-2.001545772E0,2.277320343E0,1.133941761E-1,3.034012469E0
1.033762492E1,1.744955331E-2,3.248912991E0,4.125962010E-1,3.275053547E0
1.034766592E1,2.536078346E0,3.924952862E0,8.416850585E-1,4.748197773E0
1.035770792E1,5.338587413E0,3.901480969E0,2.450613104E0,7.051778067E0
1.036774992E1,8.325133499E0,3.438692561E0,4.446306690E0,1.004500361E1
1.037779192E1,1.042160355E1,1.918575536E0,5.047226504E0,1.173734417E1
1.038783392E1,1.059123596E1,-1.508261796E0,3.946880798E0,1.140293825E1
1.039787592E1,6.940405828E0,-6.155805967E0,1.758796275E0,9.442274329E0
1.040791692E1,3.308934952E0,-8.313225060E0,5.863766196E-1,8.966749631E0
1.041795892E1,2.423516814E0,-6.274692140E0,3.571398629E0,7.615778579E0
1.042800092E1,3.539484818E0,-2.360884656E0,6.853579938E0,8.066801541E0
1.043804292E1,5.333398009E0,-6.375862420E-1,3.550624056E0,6.438833880E0
1.044808492E1,6.680323430E0,-1.497327502E0,-2.969392694E0,7.462305525E0
1.045812592E1,5.327694050E0,-2.526821035E0,-5.212099274E0,7.869887374E0
1.046816792E1,-1.628361851E-2,-9.063400608E-1,-1.343754476E0,1.620923673E0
1.047820992E1,-3.522414457E0,1.188126739E0,1.545550075E0,4.025887950E0
1.048825192E1,-3.905328145E0,-5.655274951E-1,-1.519201936E0,4.228402037E0
1.049829392E1,-2.647884711E0,-5.045416206E0,-6.023371210E0,8.291472660E0
1.050833492E1,-1.028103649E0,-8.661503935E0,-3.450720869E0,9.380091793E0
1.051837692E1,-1.296734092E0,-9.292437215E0,9.257180259E-1,9.428035986E0
1.052841892E1,-4.905119283E0,-4.381306994E0,6.287979938E0,9.099161382E0
1.053846092E1,-6.446572798E0,-4.288102376E-1,4.176794779E0,7.693360364E0
1.054850292E1,-7.094751856E0,-3.291725135E-1,-2.651714637E0,7.581256424E0
1.055854492E1,-6.635262448E0,-6.590040082E-1,-4.672179075E0,8.141882543E0
1.056858592E1,-5.245842386E0,-6.189950198E-1,-2.108277923E0,5.687429382E0
1.057862792E1,-3.315370106E0,-1.626736325E0,-2.637193662E-1,3.702363828E0
1.058866992E1,-1.398937866E0,-3.167522673E0,-8.353329358E-1,3.562023042E0
1.059871217E1,-3.611673081E-1,-3.841824167E0,-2.160081622E0,4.422217472E0
1.060875417E1,-6.720620102E-1,-3.624268568E0,-2.953169887E0,4.723155977E0
1.061879517E1,-1.886805859E0,-2.195252332E0,-2.050624961E0,3.547426093E0
1.062883717E1,-3.043645609E0,-1.669608110E-1,2.181287719E-1,3.056016143E0
1.063887917E1,-3.198623721E0,1.138234786E0,1.218652859E0,3.607199319E0
1.064892117E1,-2.901556514E0,1.999619699E0,1.529325074E0,3.841398746E0
1.065896317E1,-2.539771155E0,2.223541746E0,2.266815381E0,4.066082561E0
1.066900517E1,-1.627265790E0,2.784913625E0,1.553261529E0,3.579994306E0
1.067904617E1,-9.031226304E-1,2.794885467E0,9.037327874E-1,3.073068208E0
1.068908817E1,-2.410391861E-1,2.549431633E0,5.526441787E-1,2.619755166E0
1.069913017E1,1.117876536E-1,2.336387161E0,8.803816393E-2,2.340716165E0
1.070917217E1,9.759967715E-2,1.954074567E0,3.400448263E-2,1.956805922E0
1.071921417E1,1.887390581E-1,1.889732975E0,-1.018256061E-1,1.901862667E0
1.072925517E1,4.828411415E-1,2.049763666E0,-4.910035622E-1,2.162348527E0
1.073929717E1,6.753727037E-1,2.364630967E0,-6.707134961E-1,2.549012454E0
1.074933917E1,8.401912411E-1,2.574297502E0,-1.278460373E0,2.994560047E0
1.075938117E1,7.889294323E-1,2.299900535E0,-1.693466066E0,2.963069260E0
1.076942317E1,6.246074697E-1,1.723821155E0,-1.308768392E0,2.252680308E0
1.077946417E1,6.505603364E-1,1.154182482E0,-8.411490881E-1,1.569362209E0
1.078950617E1,8.761736906E-1,6.960841262E-1,-4.327391280E-1,1.199781897E0
1.079954817E1,1.168804176E0,4.839804715E-1,3.826125562E-2,1.265624045E0
1.080959017E1,1.570906671E0,5.438302320E-1,7.925965867E-1,1.841659154E0
1.081963217E1,2.047323039E0,1.024767812E0,1.695847490E0,2.849136607E0
1.082967417E1,2.339962587E0,1.590608718E0,2.516123554E0,3.786335793E0
1.083971517E1,2.337691675E0,2.202176605E0,3.071553492E0,4.443965011E0
1.084975717E1,2.351019233E0,2.923976201E0,3.750183095E0,5.304790430E0
1.085979917E1,2.334459042E0,3.516748797E0,4.211464675E0,5.962688641E0
1.086984117E1,1.710736548E0,4.092303683E0,4.465391709E0,6.293909126E0
1.087988317E1,6.315957695E-1,4.780601072E0,4.544746027E0,6.626294309E0
1.088992417E1,-1.168525702E0,4.704337007E0,3.740014202E0,6.122413350E0
1.089996617E1,-3.204646060E0,3.311924926E0,2.553484338E0,5.268670169E0
1.091000817E1,-5.589752222E0,5.358634007E-1,1.601786256E0,5.839366293E0
1.092005017E1,-7.024225665E0,-2.660156847E0,1.343953866E0,7.630359928E0
1.093009217E1,-5.950634186E0,-5.030267240E0,2.586583672E0,8.209997004E0
1.094013417E1,-2.591173736E0,-5.763367749E0,3.720006199E0,7.332737229E0
1.095017517E1,6.598607714E-1,-4.743756012E0,4.018297228E0,6.251827729E0
1.096021717E1,2.920468749E0,-2.905994843E0,4.062720864E0,5.786159742E0
1.097025917E1,4.318511991E0,-7.621062076E-1,3.899167811E0,5.868037262E0
1.098030117E1,5.143462903E0,6.757825935E-1,3.468748419E0,6.240521480E0
1.099034317E1,5.392602822E0,1.076943687E0,2.977459513E0,6.253418109E0
1.100038417E1,5.061436992E0,8.506114179E-1,1.897809734E0,5.472053179E0
1.101042617E1,4.439664545E0,7.049005580E-1,7.738473435E-1,4.561397350E0
1.102046817E1,3.325646587E0,8.559481716E-1,5.127299883E-1,3.472098002E0
1.103051017E1,1.807578718E0,9.397726858E-1,8.961728492E-1,2.225677268E0
1.104055217E1,6.573477843E-1,4.832478154E-1,9.630334944E-1,1.262168005E0
1.105059317E1,1.799159020E-1,-7.837794971E-1,1.972341122E-1,8.279983859E-1
1.106063517E1,1.661878091E-1,-2.554601741E0,-5.600392985E-1,2.620544306E0
1.107067717E1,-3.024742730E-1,-4.597499607E0,-1.036611348E0,4.722611185E0
1.108071917E1,-9.571471024E-1,-6.846302494E0,-1.027445106E0,6.988821922E0
1.109076117E1,-8.897076559E-1,-8.698095810E0,-1.057885126E0,8.807245391E0
1.110080317E1,-4.255738038E-1,-9.970583253E0,-1.366809463E0,1.007282540E1
1.111084417E1,3.293996778E-1,-9.688379669E0,-2.989412976E0,1.014444650E1
1.112088617E1,6.883545457E-1,-7.081798519E0,-5.309810926E0,8.878051268E0
1.113092817E1,3.032720086E0,-3.157062004E0,-4.387038435E0,6.197623565E0
1.114097017E1,3.977567278E0,-7.963977885E-1,-2.670059692E0,4.856388540E0
1.115101217E1,3.539656142E0,8.162397301E-1,-2.118597089E0,4.205218963E0
1.116105317E1,3.459699853E0,2.470444520E0,-1.193276381E0,4.415487258E0
1.117109517E1,2.506059911E0,4.240355183E0,4.259193742E-1,4.943921082E0
1.118113717E1,-1.971476465E-2,5.317526327E0,-1.616152865E-1,5.320018271E0
1.119117917E1,-2.157881607E0,5.864871905E0,-4.472362760E-1,6.265237089E0
1.120122117E1,-3.516312303E0,5.335600070E0,6.659614639E-1,6.424685595E0
1.121126317E1,-3.921808814E0,3.644266630E0,-7.073914719E-1,5.400154289E0
1.122130417E1,-3.784277624E0,2.672788587E0,-1.716429690E0,4.940717240E0
1.123134617E1,-3.782386343E0,2.170405759E0,-2.413547311E0,4.984206880E0
1.124138817E1,-3.587491628E0,1.890303079E0,-2.992947910E0,5.039948324E0
1.125143017E1,-3.106261687E0,1.431421196E0,-2.897791492E0,4.482747354E0
1.126147217E1,-2.699167424E0,9.633971912E-1,-2.533137782E0,3.824973980E0
1.127151317E1,-2.369231848E0,7.321515065E-1,-2.370566475E0,3.430581699E0
1.128155517E1,-2.219405133E0,6.541935039E-1,-2.506807185E0,3.411423537E0
1.129159717E1,-2.422678323E0,6.976815856E-1,-2.591298574E0,3.615378009E0
1.130163917E1,-2.771656818E0,8.562083727E-1,-2.484901468E0,3.819674018E0
1.131168117E1,-3.176243503E0,9.290985936E-1,-2.314747785E0,4.038539872E0
1.132172317E1,-3.452192321E0,9.242226005E-1,-1.755580307E0,3.981693289E0
1.133176417E1,-3.591949545E0,1.094065504E0,-7.794920263E-1,3.834930075E0
1.134180617E1,-3.417590837E0,1.361738173E0,-6.605219454E-2,3.679486496E0
1.135184817E1,-2.705469260E0,1.673872485E0,1.159476551E-1,3.183528996E0
1.136189017E1,-1.587804686E0,2.303085514E0,5.362156954E-1,2.848307195E0
1.137193217E1,-5.531173646E-3,3.009060205E0,7.627415076E-1,3.104230745E0
1.138197317E1,2.288115765E0,3.628579720E0,1.161031326E0,4.444103765E0
1.139201517E1,5.234794657E0,3.889956107E0,2.311222791E0,6.919290745E0
1.140205717E1,8.362992466E0,3.671028752E0,3.408497540E0,9.748535816E0
1.141209917E1,1.064611442E1,2.890638301E0,4.224925843E0,1.181293953E1
1.142214117E1,1.114140399E1,3.792445600E-2,3.544838237E0,1.169180051E1
1.143218317E1,6.918024441E0,-5.178971874E0,2.130505236E0,8.900554163E0
1.144222417E1,2.743120067E0,-7.689242949E0,6.994842821E-1,8.193805166E0
1.145226617E1,3.839217770E0,-5.611210919E0,2.534195835E0,7.255854850E0
1.146230817E1,5.152975738E0,-2.349429960E0,6.174693643E0,8.378533385E0
1.147235017E1,5.211267800E0,-4.613511622E-2,4.286256995E0,6.747698835E0
1.148239217E1,5.329344134E0,-1.277832967E-1,-1.441263814E0,5.522271168E0
1.149243317E1,5.084049929E0,-3.077966718E0,-6.927182935E0,9.127283616E0
1.150247517E1,2.851725081E-1,-4.516056079E0,-5.399067503E0,7.044573498E0
1.151251717E1,-4.651448942E0,-2.021507581E0,-3.381281090E-1,5.082991322E0
1.152255917E1,-5.809199980E0,-1.321967751E0,-2.644216168E-1,5.963582978E0
1.153260117E1,-4.067815251E0,-5.826646902E0,-4.274835044E0,8.292837252E0
1.154264317E1,-2.107794066E0,-1.023285192E1,-3.795509249E0,1.111575210E1
1.155268417E1,-1.893788019E0,-8.973254669E0,2.263196832E0,9.446046386E0
1.156272617E1,-3.532231640E0,-3.385358353E0,4.070897026E0,6.364708488E0
1.157276817E1,-5.487779120E0,-6.220420039E-1,1.200714917E0,5.651935265E0
1.158281017E1,-6.096733886E0,-6.519832563E-1,-2.332807642E0,6.560277261E0
1.159285217E1,-5.424645563E0,-1.139374993E0,-3.947252096E0,6.804833134E0
1.160289367E1,-3.763564740E0,-1.338072152E0,-2.678937519E0,4.809528342E0
1.161293467E1,-1.992317404E0,-1.992035276E0,-8.510862118E-1,2.943107357E0
1.162297667E1,-1.232512076E0,-3.120418088E0,8.062316358E-2,3.355979016E0
1.163301867E1,-1.548523384E0,-3.811418645E0,-9.569205227E-1,4.223805588E0
1.164306067E1,-2.565084629E0,-3.295797721E0,-2.558262098E0,4.897616434E0
1.165310267E1,-3.791625820E0,-1.635191399E0,-1.939396594E0,4.561966289E0
1.166314367E1,-4.316678012E0,2.710511899E-1,4.180238789E-1,4.345333332E0
1.167318567E1,-4.327098627E0,1.466533726E0,1.617844903E0,4.846846999E0
1.168322767E1,-3.333407596E0,2.187294856E0,1.991068292E0,4.456480443E0
1.169326967E1,-2.509958542E0,2.727846555E0,1.613795706E0,4.042941415E0
1.170331167E1,-1.601949101E0,3.082494217E0,1.236031661E0,3.687246369E0
1.171335367E1,-1.057955147E0,2.700967489E0,1.220178251E0,3.146955582E0
1.172339467E1,-5.874294108E-1,2.338411467E0,9.689668103E-1,2.598487672E0
1.173343667E1,-3.759017068E-1,2.009877470E0,5.654924119E-1,2.121483256E0
1.174347867E1,-1.494973706E-1,1.792406656E0,4.250789832E-1,1.848178353E0
1.175352067E1,3.076299092E-1,1.627235093E0,3.437472832E-1,1.691358153E0
1.176356267E1,8.133995913E-1,1.716783446E0,3.171352892E-1,1.926016378E0
1.177360467E1,9.835420185E-1,1.924784694E0,1.148919404E-2,2.161546443E0
1.178364567E1,1.142060473E0,2.278611993E0,-3.146236177E-1,2.568143835E0
1.179368767E1,1.355262089E0,2.398686320E0,-6.520276952E-1,2.831178466E0
1.180372967E1,1.327836601E0,2.172839954E0,-8.803426091E-1,2.694324891E0
1.181377167E1,1.367250197E0,1.789345053E0,-6.612592793E-1,2.346996518E0
1.182381367E1,1.613875374E0,1.225002789E0,-1.979177248E-1,2.035779208E0
1.183385467E1,1.576131012E0,7.474238491E-1,7.248047724E-2,1.745876513E0
1.184389667E1,1.986206186E0,4.941587198E-1,3.592588500E-1,2.078045903E0
1.185393867E1,2.598531872E0,6.098435426E-1,9.949908668E-1,2.848558207E0
1.186398067E1,2.569507755E0,1.007971686E0,1.610240160E0,3.195504717E0
1.187402267E1,2.281890234E0,1.580788320E0,1.951066759E0,3.393018752E0
1.188406467E1,2.028363149E0,2.192021745E0,2.628863719E0,3.978710953E0
1.189410567E1,1.668371716E0,2.725379030E0,3.537385960E0,4.766996378E0
1.190414767E1,1.214201520E0,3.268507011E0,4.309189190E0,5.543152072E0
1.191418967E1,3.543143713E-1,3.933517279E0,5.046730075E0,6.408399279E0
1.192423167E1,-8.806066109E-1,4.628748296E0,5.046363455E0,6.904097545E0
1.193427367E1,-2.484379020E0,4.700479599E0,4.211447133E0,6.782546316E0
1.194431467E1,-4.170249698E0,3.718423358E0,3.224244758E0,6.450845609E0
1.195435667E1,-5.536446666E0,1.409690019E0,2.472096359E0,6.225008276E0
1.196439867E1,-5.793791982E0,-1.693869962E0,2.236745344E0,6.437410249E0
1.197444067E1,-4.414537305E0,-4.327299187E0,3.286410601E0,7.001010820E0
1.198448267E1,-1.111222550E0,-5.589888462E0,3.708894151E0,6.799820909E0
1.199452467E1,2.515473928E0,-5.457841376E0,3.219901446E0,6.817874074E0
1.200456567E1,4.786053600E0,-4.147093847E0,3.393229875E0,7.184615886E0
1.201460767E1,5.303445647E0,-2.564136795E0,3.338038006E0,6.770807261E0
1.202464967E1,5.562151026E0,-1.598095493E0,3.022792976E0,6.529066596E0
1.203469167E1,5.410371341E0,-6.027099395E-1,2.249754814E0,5.890396764E0
1.204473367E1,4.717823318E0,6.492906135E-1,1.448503252E0,4.977709999E0
1.205477567E1,3.188734033E0,1.758801538E0,1.194006114E0,3.832369786E0
1.206481667E1,1.220340512E0,2.456898276E0,1.419594617E0,3.088823235E0
1.207485867E1,-1.407743481E-1,2.624555490E0,1.377686015E0,2.967512038E0
1.208490067E1,-9.126107611E-1,2.168611833E0,7.314293754E-1,2.463884050E0
1.209494267E1,-1.073421178E0,7.954061007E-1,1.823046358E-1,1.348383800E0
1.210498467E1,-1.372861623E0,-1.801202037E0,-8.760663942E-2,2.266440544E0
1.211502567E1,-1.820690807E0,-5.390144652E0,3.119324367E-1,5.697883487E0
1.212506767E1,-1.744919225E0,-8.916705077E0,-4.634197609E-1,9.097644223E0
1.213510967E1,-1.145487088E-1,-1.187033894E1,-1.056962436E0,1.191785373E1
1.214515167E1,2.056471592E0,-1.282284569E1,-2.337488338E0,1.319538930E1
1.215519367E1,4.040084831E0,-9.994397793E0,-4.513050610E0,1.168665472E1
1.216523567E1,6.039839308E0,-4.952658901E0,-5.187766086E0,9.376641511E0
1.217527667E1,6.890382314E0,-8.821705949E-1,-5.382377211E0,8.787808477E0
1.218531867E1,6.247516036E0,2.011248642E0,-3.810804103E0,7.589387698E0
1.219536067E1,4.087793140E0,4.059655169E0,-2.284289054E0,6.197485727E0
1.220540267E1,1.683069570E0,6.016018336E0,4.894528806E-1,6.266160222E0
1.221544467E1,-1.341508853E0,6.455839466E0,8.918231785E-1,6.653785223E0
1.222548667E1,-4.074408279E0,5.895988448E0,1.796008833E0,7.388445731E0
1.223552767E1,-5.203177593E0,4.359104531E0,1.504826556E0,6.952650742E0
1.224556967E1,-5.332440820E0,2.766930513E0,-2.587965953E-1,6.013136057E0
1.225561167E1,-4.567291721E0,2.028388000E0,-1.808704015E0,5.314689244E0
1.226565367E1,-3.842876081E0,1.531807948E0,-2.262602609E0,4.715241534E0
1.227569567E1,-3.419206715E0,9.740215820E-1,-2.243925432E0,4.204151989E0
1.228573667E1,-3.227343782E0,5.995208681E-1,-2.249340831E0,3.979284777E0
1.229577867E1,-3.337920185E0,4.339446777E-1,-2.262817201E0,4.055904441E0
1.230582067E1,-3.454102898E0,3.823739898E-1,-2.603434762E0,4.342223999E0
1.231586267E1,-3.530007651E0,4.450619888E-1,-2.988112848E0,4.646272977E0
1.232590467E1,-3.649267169E0,5.453698039E-1,-3.172255994E0,4.865982654E0
1.233594667E1,-3.598120112E0,7.005496448E-1,-2.813401552E0,4.620872909E0
1.234598767E1,-3.657015899E0,8.498536187E-1,-2.065506710E0,4.285129453E0
1.235602967E1,-3.746875032E0,9.961766821E-1,-1.011366579E0,4.006782106E0
1.236607167E1,-3.614755733E0,1.347879687E0,2.394776872E-1,3.865305709E0
1.237611367E1,-3.205450053E0,1.918722886E0,8.570106107E-1,3.832867691E0
1.238615567E1,-2.307765625E0,2.549946772E0,7.908961433E-1,3.528955572E0
1.239619767E1,-7.007692078E-1,3.263450339E0,4.560091460E-1,3.368846975E0
1.240623867E1,1.394839261E0,3.721122433E0,-3.542711020E-2,3.974114216E0
1.241628067E1,3.675333472E0,3.483476971E0,2.233715317E-1,5.068785138E0
1.242632267E1,6.317332960E0,2.643781720E0,1.878948956E0,7.101318659E0
1.243636467E1,8.226337774E0,1.536931279E0,2.699675547E0,8.793351976E0
1.244640667E1,8.280419841E0,-4.831829113E-1,2.278867516E0,8.601863497E0
1.245644867E1,6.262476722E0,-3.807837811E0,2.789323595E0,7.842102371E0
1.246648967E1,2.478216639E0,-6.597932653E0,3.246362436E0,7.759712757E0
1.247653167E1,1.786488689E0,-5.485883453E0,4.890786296E0,7.563481320E0
1.248657367E1,2.834226703E0,-2.202364300E0,7.032680739E0,7.895685397E0
1.249661567E1,4.256322175E0,-2.338015026E-1,4.781974290E0,6.406108000E0
1.250665767E1,5.529146417E0,-8.745440716E-1,-1.706470712E0,5.852207252E0
1.251669867E1,6.218489288E0,-3.698195500E0,-7.127852359E0,1.015640380E1
1.252674067E1,2.595949449E0,-4.709858533E0,-5.861099281E0,7.954508516E0
1.253678267E1,-1.717256486E0,-2.339637043E0,-9.649952352E-1,3.058445216E0
1.254682467E1,-3.341701287E0,-1.507768875E0,-3.018057901E-1,3.678508014E0
1.255686667E1,-3.439326984E0,-4.842386845E0,-5.486158857E0,8.085519122E0
1.256690867E1,-2.249487596E0,-8.570314853E0,-6.245823852E0,1.084070139E1
1.257694967E1,-1.383476659E0,-8.855183598E0,-1.346707320E-1,8.963616481E0
1.258699167E1,-3.454451977E0,-5.229422820E0,3.457525858E0,7.157833929E0
1.259703367E1,-5.866725472E0,-1.327437236E0,3.291027270E0,6.856487284E0
1.260707592E1,-7.044803771E0,3.218775272E-2,-7.545831800E-4,7.044877344E0
1.261711792E1,-6.928711397E0,-2.374004638E-1,-3.698521775E0,7.857637299E0
1.262715992E1,-5.642551410E0,-6.709060156E-1,-3.251704452E0,6.546914017E0
1.263720092E1,-3.828324700E0,-1.489411542E0,-1.414455500E0,4.344548436E0
1.264724292E1,-2.562139971E0,-3.499039920E0,-1.371137280E0,4.548390818E0
1.265728492E1,-1.144252741E0,-5.093371561E0,-2.438186601E0,5.761640573E0
1.266732692E1,-7.158386520E-1,-4.941442187E0,-2.524740303E0,5.595050443E0
1.267736892E1,-1.708275163E0,-2.975530517E0,-1.446794695E0,3.723600512E0
1.268741092E1,-3.342694729E0,-2.807055277E-1,1.997512655E-1,3.360402388E0
1.269745192E1,-4.219329180E0,1.499447703E0,1.383509111E0,4.686702423E0
1.270749392E1,-3.594475835E0,2.496140109E0,1.210099990E0,4.540409008E0
1.271753592E1,-2.427507246E0,3.231202360E0,6.745669574E-1,4.097377295E0
1.272757792E1,-1.968738214E0,3.135710896E0,1.419963138E0,3.965464449E0
1.273761992E1,-1.553049421E0,2.891150517E0,3.084672890E0,4.503989415E0
1.274766192E1,3.862860695E-2,2.808836339E0,2.271636264E0,3.612670074E0
1.275770292E1,7.541855693E-2,2.179826208E0,-1.547363296E-2,2.181185386E0
1.276774492E1,-3.524371228E-1,1.478850886E0,5.772704583E-1,1.626177435E0
1.277778692E1,8.245597333E-3,1.199255159E0,1.060024184E0,1.600603698E0
1.278782892E1,8.762720700E-1,1.302719302E0,1.487831332E-1,1.577043671E0
1.279787092E1,1.357397638E0,1.694457607E0,-3.968150045E-1,2.207074326E0
1.280791192E1,1.792524915E0,2.206575465E0,-9.879117890E-1,3.009666187E0
1.281795392E1,2.095576016E0,2.409427071E0,-1.553807074E0,3.551210226E0
1.282799592E1,2.110942061E0,2.232640014E0,-1.408291511E0,3.379947158E0
1.283803792E1,1.839500715E0,1.687732725E0,-9.541166367E-1,2.672553683E0
1.284807992E1,1.647112556E0,1.091934194E0,-6.681250799E-1,2.086070751E0
1.285812192E1,1.837757514E0,6.154282182E-1,-3.944278787E-1,1.977796229E0
1.286816292E1,2.141517444E0,4.427646178E-1,6.499472558E-1,2.281352428E0
1.287820492E1,2.315815341E0,6.449028629E-1,1.654303023E0,2.918153335E0
1.288824692E1,2.322311013E0,1.076726171E0,2.496025504E0,3.575277752E0
1.289828892E1,2.347764673E0,1.720893454E0,3.118752217E0,4.266156189E0
1.290833092E1,2.419260041E0,2.532048445E0,3.700396977E0,5.094803849E0
1.291837292E1,2.268003974E0,3.331619518E0,4.019447960E0,5.692055213E0
1.292841392E1,1.918301448E0,4.142552900E0,4.477512403E0,6.394430568E0
1.293845592E1,1.537609994E0,4.705558491E0,4.800615506E0,6.895827321E0
1.294849792E1,7.882235272E-1,4.640823382E0,4.045835275E0,6.207038026E0
1.295853992E1,-3.652912031E-1,3.941962413E0,3.425939199E0,5.235414475E0
1.296858192E1,-1.541958861E0,2.524107926E0,2.380874532E0,3.797014813E0
1.297862392E1,-2.885269680E0,1.756953818E-1,1.071542687E0,3.082832094E0
1.298866492E1,-3.775115622E0,-2.756197364E0,-3.629512936E-1,4.688267859E0
1.299870692E1,-3.373681756E0,-5.493257961E0,-6.755522132E-2,6.446873299E0
1.300874892E1,-8.381392338E-1,-6.344469888E0,2.038755698E0,6.716494646E0
1.301879092E1,1.667648416E0,-5.272347815E0,3.347702284E0,6.464194715E0
1.302883292E1,2.987666413E0,-3.070278799E0,3.647528207E0,5.626475319E0
1.303887392E1,3.965978681E0,-4.570265615E-1,4.116110036E0,5.734127834E0
1.304891592E1,4.530046712E0,1.638445959E0,4.293260790E0,6.452744887E0
1.305895792E1,4.513327768E0,2.691000910E0,3.788534982E0,6.478009783E0
1.306899992E1,3.903169060E0,2.795985328E0,2.559905165E0,5.441082349E0
1.307904192E1,3.193271472E0,2.820990361E0,1.615442428E0,4.556821650E0
1.308908392E1,1.944974107E0,2.877632339E0,1.217606646E0,3.680524161E0
1.309912492E1,4.424310341E-1,2.792862915E0,1.007260664E0,3.001733254E0
1.310916692E1,-1.014124418E0,2.281470112E0,8.359734982E-1,2.632946239E0
1.311920892E1,-1.458734125E0,8.824407363E-1,2.499232994E-1,1.723098533E0
1.312925092E1,-1.375913139E0,-1.565186194E0,-6.386271925E-1,2.179630583E0
1.313929292E1,-1.755562765E0,-5.202982880E0,-6.852651693E-1,5.533770851E0
1.314933492E1,-1.982880875E0,-9.147718627E0,-3.524998342E-1,9.366793944E0
1.315937592E1,-1.263718666E0,-1.285893120E1,-7.036492538E-1,1.294002391E1
1.316941792E1,-3.155002615E-1,-1.541958715E1,-1.924481809E0,1.554242061E1
1.317945992E1,2.943590686E-1,-1.392507976E1,-4.244482148E0,1.456056737E1
1.318950192E1,2.584665200E0,-7.637105082E0,-5.793007870E0,9.927981084E0
1.319954392E1,5.796415628E0,-2.070931756E0,-3.887134533E0,7.279904350E0
1.320958592E1,6.231452565E0,1.459573200E0,-2.055634856E0,6.722126870E0
1.321962692E1,5.397276501E0,3.708947945E0,-6.785484727E-1,6.583867900E0
1.322966892E1,2.907866829E0,5.208034290E0,-1.816262126E-2,5.964867186E0
1.323971092E1,1.155302224E0,6.159340024E0,8.373996341E-1,6.322454500E0
1.324975292E1,-7.680788460E-1,5.901176682E0,-1.457792723E-1,5.952737433E0
1.325979492E1,-2.831746899E0,5.081461952E0,-5.045574081E-1,5.839060219E0
1.326983692E1,-3.073029622E0,3.908415767E0,-7.190470192E-1,5.023569794E0
1.327987792E1,-3.365050973E0,2.992106788E0,-1.235570462E0,4.669358141E0
1.328991992E1,-5.109218684E0,1.896960134E0,-2.508040363E0,5.999403285E0
1.329996192E1,-5.360035000E0,1.092238249E0,-3.126542462E0,6.300652931E0
1.331000392E1,-4.737136671E0,7.134199512E-1,-2.668216649E0,5.483503621E0
1.332004592E1,-4.435067464E0,3.874552202E-1,-2.471628289E0,5.092041963E0
1.333008792E1,-4.165615488E0,3.325334930E-1,-2.226372968E0,4.734941130E0
1.334012892E1,-3.797800480E0,4.955252141E-1,-2.012349965E0,4.326475021E0
1.335017092E1,-3.961161160E0,7.987214720E-1,-1.960009491E0,4.491145837E0
1.336021292E1,-4.129634354E0,9.439622158E-1,-2.325390887E0,4.832430790E0
1.337025492E1,-3.933005355E0,8.385614759E-1,-2.464245010E0,4.716377841E0
1.338029692E1,-3.989695280E0,8.014462745E-1,-2.003537918E0,4.535873538E0
1.339033892E1,-4.160920174E0,1.040565235E0,-1.464063862E0,4.532054246E0
1.340037992E1,-4.058179624E0,1.763179933E0,-7.190078428E-1,4.482699813E0
1.341042192E1,-3.300155358E0,2.303720521E0,2.275879589E-1,4.031122661E0
1.342046392E1,-2.274087709E0,1.779826956E0,2.592006379E-1,2.899386810E0
1.343050592E1,-6.050786465E-1,1.776566548E0,2.039614069E-1,1.887831858E0
1.344054792E1,1.721947999E0,2.240807405E0,5.181524768E-1,2.873117597E0
1.345058892E1,4.041490501E0,2.515421303E0,1.183191104E0,4.905194287E0
1.346063092E1,6.914560550E0,2.631896669E0,2.689336500E0,7.872138114E0
1.347067292E1,9.335661002E0,2.311308453E0,3.058623836E0,1.009216988E1
1.348071492E1,1.036454525E1,1.532744672E0,4.061008800E0,1.123676542E1
1.349075692E1,8.531780532E0,-8.808783603E-1,4.117827071E0,9.514395699E0
1.350079892E1,3.594220019E0,-4.294108052E0,2.059908878E0,5.966657866E0
1.351083992E1,1.148853330E0,-5.507946167E0,1.269626108E0,5.767953312E0
1.352088192E1,1.101658406E0,-3.681788798E0,4.064505142E0,5.593694848E0
1.353092392E1,2.562603071E0,-7.353610432E-1,6.663693364E0,7.177220884E0
1.354096592E1,4.317652743E0,8.103773117E-1,4.370481167E0,6.196768692E0
1.355100792E1,6.031980650E0,-5.625571096E-1,-1.715323981E0,6.296316179E0
1.356104992E1,7.073576165E0,-3.424866235E0,-7.006428494E0,1.052878097E1
1.357109092E1,3.644324518E0,-4.989025658E0,-6.282589974E0,8.811493347E0
1.358113292E1,-1.822634422E0,-3.200810872E0,-1.133475738E0,3.853823260E0
1.359117492E1,-3.607818596E0,-2.996234922E0,-4.798225164E-3,4.689754978E0
1.360121629E1,-2.056937615E0,-6.554898316E0,-2.954358918E0,7.478363517E0
1.361125829E1,-7.350438318E-1,-9.414014862E0,-2.785142544E0,9.844845567E0
1.362130029E1,-1.401726696E0,-5.897538545E0,1.424626731E0,6.226986425E0
1.363134129E1,-4.724877107E0,-2.742402613E-1,3.553392128E0,5.918299334E0
1.364138329E1,-6.380716778E0,2.072599967E0,3.331943746E0,7.490732030E0
1.365142529E1,-5.795084801E0,1.921438918E0,-1.352767959E0,6.253392401E0
1.366146729E1,-4.915004001E0,9.144092184E-1,-3.586189453E0,6.152573717E0
1.367150929E1,-2.798954544E0,2.024481475E-2,-1.803231167E0,3.329594425E0
1.368155129E1,-1.209311493E0,-1.849556757E0,-9.570678726E-2,2.211889299E0
1.369159229E1,-2.072399408E-1,-4.617286000E0,-2.153175768E-1,4.626947164E0
1.370163429E1,-4.427540928E-2,-6.187989627E0,-1.860902402E0,6.461898612E0
1.371167629E1,-1.060856827E0,-5.393612636E0,-3.066409696E0,6.294389796E0
1.372171829E1,-2.891737870E0,-2.875864726E0,-2.578745479E0,4.825212334E0
1.373176029E1,-4.205275690E0,-3.391133648E-1,2.848398015E-2,4.219022735E0
1.374180229E1,-4.669720906E0,1.497716927E0,1.038480849E0,5.012772866E0
1.375184329E1,-4.230723942E0,2.569299302E0,1.622364947E0,5.208876270E0
1.376188529E1,-3.043420491E0,3.275074019E0,2.754615692E0,5.251326092E0
1.377192729E1,-2.054225092E0,3.617215657E0,6.867068003E-1,4.216118602E0
1.378196929E1,-1.135400933E0,3.336254606E0,-9.608437121E-2,3.525473341E0
1.379201129E1,-5.549596761E-1,2.480332747E0,1.378305527E0,2.891324420E0
1.380205329E1,-3.387480600E-1,1.820455749E0,1.000146357E0,2.104543209E0
1.381209429E1,-1.786951496E-1,1.421399068E0,4.057698691E-1,1.488944745E0
1.382213629E1,3.040046355E-1,1.224942563E0,3.194700824E-1,1.301907921E0
1.383217829E1,6.933602008E-1,1.274284877E0,-4.342586732E-1,1.514308723E0
1.384222029E1,9.453781191E-1,1.445836921E0,-1.138717328E0,2.069024249E0
1.385226229E1,1.180801493E0,1.731917794E0,-1.447585824E0,2.547417541E0
1.386230429E1,1.192274461E0,1.909017093E0,-1.703912555E0,2.822974078E0
1.387234529E1,1.064849891E0,2.006602444E0,-1.802746433E0,2.900043683E0
1.388238729E1,9.604192042E-1,1.837736610E0,-1.733580158E0,2.702772846E0
1.389242929E1,9.306799731E-1,1.437408160E0,-1.101363414E0,2.036003143E0
1.390247129E1,1.349156134E0,1.154064953E0,-2.188267833E-1,1.788846934E0
1.391251329E1,1.933465471E0,1.171086198E0,6.709545475E-1,2.357946483E0
1.392255529E1,2.380679089E0,1.426900129E0,1.333626514E0,3.079324046E0
1.393259629E1,2.266411339E0,1.772537817E0,2.042643512E0,3.528583736E0
1.394263829E1,2.092774908E0,2.137363143E0,2.618807092E0,3.975698505E0
1.395268029E1,2.075363361E0,2.515882648E0,3.062622455E0,4.473975288E0
1.396272229E1,2.084926921E0,2.834253600E0,3.396831175E0,4.890641652E0
1.397276429E1,1.779672297E0,3.300994141E0,3.959691170E0,5.453709744E0
1.398280629E1,1.240873009E0,4.068500837E0,4.303211582E0,6.050627637E0
1.399284729E1,-5.879916206E-2,4.221122521E0,3.834929715E0,5.703333990E0
1.400288929E1,-1.483233228E0,3.384705804E0,2.868409526E0,4.678032428E0
1.401293129E1,-3.584640526E0,1.333717731E0,1.988890058E0,4.310931958E0
1.402297329E1,-5.640989034E0,-1.075239224E0,1.733358548E0,5.998452178E0
1.403301529E1,-5.930605718E0,-3.100630526E0,2.954730216E0,7.315492089E0
1.404305729E1,-3.759674295E0,-4.639030625E0,4.193463437E0,7.296635632E0
1.405309829E1,-2.973551819E-1,-5.224598283E0,3.700443755E0,6.409222363E0
1.406314029E1,1.748577974E0,-4.173452511E0,2.993939306E0,5.425762928E0
1.407318229E1,2.311647445E0,-1.991633572E0,3.095925272E0,4.346846154E0
1.408322429E1,2.677484194E0,-3.442793798E-1,3.327136458E0,4.284540455E0
1.409326629E1,3.040289599E0,4.790641326E-1,2.868363917E0,4.207181343E0
1.410330829E1,3.372267899E0,7.688287514E-1,1.687762545E0,3.848614146E0
1.411334929E1,3.572282436E0,1.170880961E0,6.395215973E-1,3.813286233E0
1.412339129E1,2.837892907E0,1.655181860E0,1.938450661E-1,3.291024013E0
1.413343329E1,1.577033092E0,1.918111852E0,1.760315967E-1,2.489412294E0
1.414347529E1,8.301509871E-1,1.769371549E0,1.407242082E-2,1.954488264E0
1.415351729E1,6.829151733E-1,1.104011618E0,-3.454815674E-1,1.343343701E0
1.416355929E1,3.895071544E-1,-1.707047832E-1,-2.911223423E-1,5.153718701E-1
1.417360029E1,-4.078349595E-1,-2.637674888E0,-4.776882827E-2,2.669445641E0
1.418364229E1,-1.384208876E0,-6.373222402E0,4.477720271E-1,6.537162824E0
1.419368429E1,-1.429055705E0,-1.000256051E1,5.239678252E-1,1.011770523E1
1.420372629E1,-1.028652556E0,-1.234042117E1,-2.926266848E-1,1.238667635E1
1.421376829E1,-2.057646883E-1,-1.226070607E1,-2.181999618E0,1.245505419E1
1.422381029E1,2.052772936E0,-8.281458891E0,-5.019392588E0,9.899027227E0
1.423385129E1,5.629211572E0,-4.009724041E0,-4.329016514E0,8.155139103E0
1.424389329E1,5.626304337E0,-1.852372191E0,-4.444658360E0,7.405509514E0
1.425393529E1,5.225259018E0,-8.502670169E-2,-3.501816178E0,6.290729520E0
1.426397729E1,4.671668029E0,2.139970416E0,-1.204561508E0,5.277776424E0
1.427401929E1,3.421506718E0,3.978822091E0,1.823759718E-1,5.250808932E0
1.428406129E1,3.294549340E-1,4.865383360E0,-6.571264672E-1,4.920600673E0
1.429410229E1,-1.781927860E0,5.244754220E0,-7.332858664E-1,5.587523771E0
1.430414429E1,-2.903991002E0,4.647932426E0,-2.385953423E-1,5.485742185E0
1.431418629E1,-4.022862734E0,3.351231664E0,-2.897850841E-2,5.235935255E0
1.432422829E1,-4.361161874E0,2.453161905E0,-8.731845939E-1,5.079388503E0
1.433427029E1,-3.886778145E0,2.044943807E0,-1.972640354E0,4.814576772E0
1.434431229E1,-3.664468760E0,1.736079842E0,-2.289936588E0,4.656835201E0
1.435435329E1,-3.639304976E0,1.364006892E0,-2.445089824E0,4.591679404E0
1.436439529E1,-3.742027106E0,1.111070377E0,-2.476165144E0,4.622622423E0
1.437443729E1,-3.874797201E0,9.381705487E-1,-2.510511396E0,4.711357001E0
1.438447929E1,-4.080774143E0,9.477751851E-1,-2.571207833E0,4.915496427E0
1.439452129E1,-4.143164518E0,1.103995830E0,-2.672255321E0,5.052283397E0
1.440456329E1,-4.129916190E0,1.301044074E0,-2.633759592E0,5.068097573E0
1.441460429E1,-4.016605921E0,1.551931141E0,-2.097077289E0,4.789503789E0
1.442464629E1,-3.710196911E0,1.549046710E0,-1.363503447E0,4.245497435E0
1.443468829E1,-3.294751361E0,1.829254639E0,-1.757415748E-1,3.772591174E0
1.444473029E1,-2.918087762E0,2.489499426E0,5.027240136E-1,3.868536547E0
1.445477229E1,-2.023472538E0,3.089039006E0,5.573334995E-1,3.734598201E0
1.446481429E1,-3.159847033E-1,3.776140639E0,1.635638711E-1,3.792866673E0
1.447485529E1,2.176507328E0,4.569765093E0,2.649072281E-1,5.068541506E0
1.448489729E1,4.694330375E0,4.845401085E0,1.480710885E0,6.907036562E0
1.449493929E1,7.696944902E0,4.416479166E0,2.883740340E0,9.330820296E0
1.450498129E1,1.004137198E1,2.898520932E0,3.499055415E0,1.102152275E1
1.451502329E1,1.044674775E1,-1.942988831E-1,4.254372421E0,1.128148817E1
1.452506529E1,7.042213454E0,-4.640925708E0,3.002113713E0,8.952298504E0
1.453510629E1,3.794886228E0,-7.217050465E0,1.188843607E0,8.240165533E0
1.454514829E1,2.950633072E0,-6.220121246E0,3.176990192E0,7.582177162E0
1.455519029E1,3.384347954E0,-2.376255816E0,7.661316648E0,8.706099905E0
1.456523229E1,3.826453883E0,2.656530404E-1,6.742912027E0,7.757524312E0
1.457527429E1,4.387806174E0,-4.524575472E-3,2.749229237E-1,4.396412868E0
1.458531629E1,5.757002470E0,-3.276825845E0,-6.346529278E0,9.173826842E0
1.459535729E1,3.023221577E0,-6.007922282E0,-6.880730900E0,9.621821894E0
1.460539983E1,-2.312726403E0,-4.053933084E0,-1.675348907E0,4.958817482E0
1.461544183E1,-3.701363522E0,-1.865769331E0,6.315295498E-1,4.192853049E0
1.462548383E1,-2.261210971E0,-4.483500536E0,-1.778192074E0,5.326989691E0
1.463552583E1,-3.478409189E-1,-8.600482392E0,-3.862113420E0,9.434257298E0
1.464556783E1,6.914794439E-1,-7.851550546E0,-3.861773112E-1,7.891395486E0
1.465560883E1,-2.987676060E0,-2.952075580E0,3.505596111E0,5.470846604E0
1.466565083E1,-5.664698324E0,4.554349494E-1,2.774796188E0,6.324217104E0
1.467569283E1,-5.869537983E0,1.096644711E0,-8.336294957E-1,6.029016826E0
1.468573483E1,-5.640515410E0,8.659626979E-1,-3.639889405E0,6.768611406E0
1.469577683E1,-4.452385455E0,1.518989682E-1,-2.549577813E0,5.132948136E0
1.470581883E1,-2.610028375E0,-1.048246722E0,-4.123661131E-2,2.812964587E0
1.471585983E1,-2.065835323E0,-3.789276409E0,2.373580715E-1,4.322340817E0
1.472590183E1,-1.611640861E0,-5.734015896E0,-2.234307932E0,6.361482256E0
1.473594383E1,-1.604340612E0,-5.659067456E0,-3.522992454E0,6.856415178E0
1.474598583E1,-3.132921190E0,-3.914743039E0,-1.988695931E0,5.394007763E0
1.475602783E1,-3.957139446E0,-1.306070926E0,-1.453749374E-2,4.167131531E0
1.476606983E1,-4.179649390E0,6.469903189E-1,8.169256085E-1,4.307601763E0
1.477611083E1,-3.637934096E0,2.074416112E0,1.272246537E0,4.376799966E0
1.478615283E1,-3.100826408E0,2.822631674E0,7.186163718E-1,4.254266502E0
1.479619483E1,-2.702804392E0,2.970227092E0,7.225129563E-1,4.080370759E0
1.480623683E1,-2.209511645E0,2.766367427E0,2.220733182E0,4.179280598E0
1.481627883E1,-1.606317848E0,2.292158822E0,2.029100776E-2,2.799046412E0
1.482632083E1,-8.758713895E-1,1.972856408E0,-9.870632118E-1,2.373522042E0
1.483636283E1,-9.480861108E-1,1.603368512E0,7.311854003E-1,2.001072200E0
1.484640383E1,-2.979703090E-1,1.676636463E0,7.459110282E-1,1.859107151E0
1.485644583E1,2.922556789E-1,1.954808977E0,2.075368331E-1,1.987401081E0
1.486648783E1,4.502326816E-1,2.191467429E0,-6.367588609E-1,2.326091316E0
1.487652983E1,8.189260872E-1,2.237162835E0,-1.418638890E0,2.772737598E0
1.488657183E1,1.063197176E0,2.120464690E0,-1.807364126E0,2.982167637E0
1.489661383E1,7.909233329E-1,1.681383818E0,-1.932436945E0,2.680843861E0
1.490665483E1,4.766923557E-1,1.084128746E0,-1.597659437E0,1.988739907E0
1.491669683E1,5.066223523E-1,5.398032546E-1,-1.001577755E0,1.245476520E0
1.492673883E1,8.784448953E-1,2.772246802E-1,-2.720569841E-1,9.604863143E-1
1.493678083E1,1.561941428E0,3.578724021E-1,6.130851658E-1,1.715694350E0
1.494682283E1,2.141499317E0,6.713375401E-1,1.240097376E0,2.564089491E0
1.495686483E1,2.237040628E0,1.253820207E0,2.023689762E0,3.266762332E0
1.496690583E1,2.283575840E0,2.005059949E0,2.645857481E0,4.029335656E0
1.497694783E1,2.457300856E0,2.806480495E0,3.062164618E0,4.826128098E0
1.498698983E1,2.512218198E0,3.524503375E0,3.703853851E0,5.696656709E0
1.499703183E1,2.458903286E0,4.126357867E0,4.063355872E0,6.291573377E0
1.500707383E1,2.098569206E0,4.848037595E0,4.225351812E0,6.764692097E0
1.501711583E1,8.299887268E-1,5.113308812E0,3.991854365E0,6.539855469E0
1.502715683E1,-7.907433848E-1,4.378175810E0,2.991634333E0,5.361303434E0
1.503719883E1,-3.060706615E0,2.368661453E0,2.259932331E0,4.481715765E0
1.504724083E1,-5.699626082E0,-8.609107035E-1,1.389941633E0,5.929489224E0
1.505728283E1,-7.143942727E0,-3.924438892E0,1.875877413E0,8.363973600E0
1.506732483E1,-5.463199180E0,-5.983399644E0,3.699739165E0,8.907058239E0
1.507736683E1,-1.244333099E0,-6.320065364E0,4.443515521E0,7.825370359E0
1.508740783E1,2.212902445E0,-4.995258790E0,4.164426164E0,6.869642850E0
1.509744983E1,3.556648443E0,-2.873871410E0,3.905059465E0,6.013183388E0
1.510749183E1,4.140476553E0,-5.986320913E-1,3.653992889E0,5.554599041E0
1.511753383E1,4.620948696E0,1.128548874E0,3.580081159E0,5.953467100E0
1.512757583E1,4.640182819E0,1.845748465E0,2.869961962E0,5.759753958E0
1.513761783E1,4.557440040E0,1.789316987E0,1.551996045E0,5.136205479E0
1.514765883E1,4.212584417E0,1.710987101E0,4.515108099E-1,4.569158165E0
1.515770083E1,2.938459462E0,1.898681554E0,2.820485600E-1,3.509855701E0
1.516774283E1,1.182864537E0,2.051795574E0,5.425426751E-1,2.429688487E0
1.517778483E1,-8.318190515E-2,1.578340091E0,6.882687378E-1,1.723888200E0
1.518782683E1,-6.563790469E-1,3.467714632E-1,2.469523291E-1,7.823486139E-1
1.519786883E1,-1.144299665E0,-1.627077218E0,-2.893472739E-1,2.010105430E0
1.520790983E1,-2.138617225E0,-4.777119055E0,4.837986231E-3,5.233982566E0
1.521795183E1,-2.496614903E0,-7.958216624E0,3.517101677E-1,8.348053536E0
1.522799383E1,-1.957793542E0,-1.013554256E1,-1.967715244E-1,1.032477107E1
1.523803583E1,-1.263863823E0,-1.134922573E1,-1.400630928E0,1.150495734E1
1.524807783E1,-1.103033379E-2,-9.792191135E0,-3.435691770E0,1.037743257E1
1.525811983E1,3.862118683E0,-5.226527279E0,-2.833934342E0,7.089691952E0
1.526816183E1,5.477483343E0,-1.999361252E0,-3.361630937E0,6.730589257E0
1.527820283E1,4.971211531E0,-1.156602645E-1,-3.796165014E0,6.255972362E0
1.528824483E1,4.727396964E0,1.541802594E0,-2.402797205E0,5.522578357E0
1.529828683E1,3.708538348E0,3.071491511E0,-9.748434082E-1,4.913006865E0
1.530832883E1,5.661440840E-1,4.056218761E0,-7.435687798E-1,4.162490155E0
1.531837083E1,-1.712921945E0,4.806614749E0,-2.745525026E-1,5.110090607E0
1.532841283E1,-3.484927665E0,4.857532303E0,-3.040622306E-1,5.986050012E0
1.533845383E1,-4.207126626E0,4.070646765E0,-5.089691323E-1,5.876149174E0
1.534849583E1,-4.327175810E0,3.331315463E0,-1.028621420E0,5.556993362E0
1.535853783E1,-4.191566308E0,2.532305138E0,-1.722712230E0,5.191294141E0
1.536857983E1,-3.152544153E0,1.938010511E0,-2.454026123E0,4.440344986E0
1.537862183E1,-2.874930341E0,1.338046424E0,-2.301386898E0,3.918159562E0
1.538866383E1,-2.927565514E0,8.735757726E-1,-1.958702346E0,3.629089328E0
1.539870483E1,-3.011373364E0,5.081663096E-1,-2.159513565E0,3.740334393E0
1.540874683E1,-3.014537877E0,4.122322118E-1,-2.498623129E0,3.937066363E0
1.541878883E1,-3.184759680E0,4.405473536E-1,-2.945513835E0,4.360370161E0
1.542883083E1,-3.206443495E0,5.094877803E-1,-3.044149346E0,4.450584560E0
1.543887283E1,-3.255764466E0,7.405668193E-1,-2.571165733E0,4.214182566E0
1.544891483E1,-3.375468080E0,8.942544508E-1,-1.994490814E0,4.021376554E0
1.545895583E1,-3.490010650E0,1.090974666E0,-1.066132770E0,3.808810725E0
1.546899783E1,-3.348392548E0,1.408118872E0,-8.883674741E-2,3.633513917E0
1.547903983E1,-2.664440225E0,1.812777770E0,1.998765421E-1,3.228831923E0
1.548908183E1,-1.618658104E0,2.467403383E0,3.467249778E-1,2.971254234E0
1.549912383E1,1.544512779E-2,3.240286009E0,4.189155793E-1,3.267289739E0
1.550916583E1,2.344354577E0,3.793167146E0,5.350029829E-1,4.491140565E0
1.551920683E1,4.850094060E0,3.834779441E0,1.349625666E0,6.328541317E0
1.552924883E1,7.542731606E0,3.580171791E0,3.288437245E0,8.973530501E0
1.553929083E1,9.602519154E0,2.629581757E0,3.778688271E0,1.064901683E1
1.554933283E1,1.005234136E1,2.654331851E-1,3.345703414E0,1.059781831E1
1.555937483E1,7.058706111E0,-3.655527198E0,2.868342283E0,8.450775024E0
1.556941683E1,2.576882556E0,-6.442316610E0,1.652659956E0,7.132674950E0
1.557945883E1,1.212738546E0,-5.781218129E0,3.587325860E0,6.911014735E0
1.558949983E1,2.682618049E0,-3.187078101E0,7.040867425E0,8.180936408E0
1.559954183E1,4.422849415E0,-1.776539066E0,5.108044564E0,6.986401596E0
1.560958367E1,5.465928660E0,-2.608720645E0,-1.680527201E0,6.285377570E0
1.561962567E1,4.799643991E0,-3.784121504E0,-5.940790983E0,8.523447396E0
1.562966767E1,5.953550193E-1,-2.820685721E0,-3.921745957E0,4.867320298E0
1.563970967E1,-2.202690575E0,-2.260335351E0,-1.463061064E0,3.478722373E0
1.564975067E1,-2.815150162E0,-4.501142170E0,-3.465177525E0,6.339779693E0
1.565979267E1,-2.185517595E0,-7.379149901E0,-5.072479459E0,9.217287469E0
1.566983467E1,-6.322544584E-1,-7.709367896E0,-1.889612523E-1,7.737558104E0
1.567987667E1,-2.758417552E0,-4.305159289E0,4.399080191E0,6.745010780E0
1.568991867E1,-5.738131167E0,-3.625373107E-1,4.137898808E0,7.083769416E0
1.569996067E1,-7.419742441E0,-1.829552847E-1,-6.179518765E-1,7.447678501E0
1.571000167E1,-7.440022924E0,-2.012368383E0,-4.789229223E0,9.074154736E0
1.572004367E1,-6.530035370E0,-3.024143683E0,-3.344158579E0,7.935376711E0
1.573008567E1,-4.792713871E0,-4.132430200E0,-5.885802890E-1,6.355589065E0
1.574012767E1,-2.772006481E0,-5.538762163E0,-4.174755563E-1,6.207752578E0
1.575016967E1,-1.307045656E0,-5.597629007E0,-1.799660711E0,6.023337739E0
1.576021167E1,-1.181529325E0,-4.248094558E0,-2.838133520E0,5.243788782E0
1.577025267E1,-2.045884039E0,-1.735352449E0,-2.435420575E0,3.623308295E0
1.578029467E1,-2.718036096E0,6.364442807E-1,-3.172605658E-1,2.809525905E0
1.579033667E1,-2.728582134E0,2.309800456E0,1.244551639E0,3.785399238E0
1.580037867E1,-2.272240574E0,3.394845461E0,1.563746464E0,4.374169170E0
1.581042067E1,-1.414519819E0,3.942183437E0,1.118742508E0,4.335119534E0
1.582046267E1,-1.471265000E0,3.466342290E0,1.423725675E0,4.025809778E0
1.583050467E1,-9.481982312E-1,3.169667432E0,1.532917604E0,3.646328001E0
1.584054567E1,-5.618019417E-1,2.865150288E0,1.347367909E0,3.215603812E0
1.585058767E1,-5.444463824E-1,2.187572599E0,7.931758265E-1,2.389774808E0
1.586062967E1,-3.930999760E-1,1.666464647E0,2.220135158E-1,1.726534683E0
1.587067167E1,-1.854464909E-1,1.317950714E0,4.686424939E-1,1.411031634E0
1.588071367E1,5.264578620E-1,1.336700395E0,2.595973715E-2,1.436871510E0
1.589075567E1,6.831281582E-1,1.410848937E0,-6.869057518E-1,1.711431657E0
1.590079667E1,1.008025772E0,1.655737930E0,-1.158570964E0,2.258289337E0
1.591083867E1,1.354565686E0,1.911751251E0,-1.276918024E0,2.668362922E0
1.592088067E1,1.507692131E0,1.956581268E0,-1.412497852E0,2.845434238E0
1.593092267E1,1.533336118E0,1.844592471E0,-8.126676661E-1,2.532601384E0
1.594096467E1,1.367982561E0,1.644539927E0,-1.382287627E-1,2.143593956E0
1.595100667E1,1.226081162E0,1.318362942E0,1.353566104E-1,1.805457636E0
1.596104767E1,1.568230108E0,1.170016158E0,7.606357791E-1,2.099249930E0
1.597108967E1,1.751942023E0,1.226033653E0,1.397627798E0,2.554569011E0
1.598113167E1,1.712291761E0,1.485279899E0,2.039518175E0,3.049202165E0
1.599117367E1,1.831029854E0,1.914623988E0,2.352816083E0,3.543190492E0
1.600121567E1,2.198024351E0,2.492718319E0,2.956633485E0,4.448217309E0
1.601125767E1,2.133726906E0,3.042803902E0,3.496808038E0,5.102853373E0
1.602129867E1,2.014139066E0,3.583791218E0,3.439496554E0,5.360079497E0
1.603134067E1,1.470889755E0,4.100948791E0,4.690853328E0,6.401984271E0
1.604138267E1,6.936439370E-1,4.806175039E0,4.944206750E0,6.930053449E0
1.605142467E1,-9.874201843E-1,4.612895325E0,4.017586792E0,6.196354213E0
1.606146667E1,-3.068162399E0,3.102428545E0,2.664518870E0,5.112567280E0
1.607150867E1,-5.208121414E0,2.547456443E-1,1.284056159E0,5.370123297E0
1.608154967E1,-6.537351991E0,-3.050514041E0,4.978647581E-1,7.231215408E0
1.609159167E1,-5.597753552E0,-5.532124404E0,1.782063516E0,8.069386323E0
1.610163367E1,-2.544866419E0,-6.278285254E0,2.740551969E0,7.307792821E0
1.611167567E1,9.481939919E-1,-5.050158298E0,2.630079939E0,5.772390421E0
1.612171767E1,3.538472665E0,-2.703335027E0,3.135320887E0,5.446011948E0
1.613175967E1,4.527309922E0,-7.324175549E-1,3.613790942E0,5.838874513E0
1.614180167E1,4.507159540E0,1.037997723E-1,3.514086560E0,5.716123325E0
1.615184267E1,4.200015827E0,4.248797393E-1,2.988611907E0,5.172277726E0
1.616188467E1,3.672510144E0,7.625891876E-1,2.055327877E0,4.277060405E0
1.617192667E1,2.707288329E0,1.133744709E0,1.427258563E0,3.263717844E0
1.618196867E1,1.413812160E0,1.130016525E0,1.327210949E0,2.244391025E0
1.619201067E1,4.580840304E-1,5.416650081E-1,1.117053832E0,1.323272921E0
1.620205267E1,3.533715078E-1,-4.708452863E-1,2.631116943E-1,6.448212697E-1
1.621209367E1,1.719775759E-1,-2.018929544E0,-5.542518707E-1,2.100677968E0
1.622213567E1,-6.902225849E-1,-4.420986199E0,-1.155746613E0,4.621393342E0
1.623217767E1,-7.396581620E-1,-7.147149341E0,-1.312847410E0,7.304273148E0
1.624221967E1,1.519583175E-1,-9.389063038E0,-1.143195564E0,9.459624314E0
1.625226167E1,1.272795152E0,-1.088206594E1,-1.766669113E0,1.109776943E1
1.626230367E1,1.633885277E0,-1.031515499E1,-3.874585531E0,1.113931850E1
1.627234467E1,3.876927341E0,-6.175619257E0,-4.976413214E0,8.827996788E0
1.628238667E1,6.740067941E0,-2.110484077E0,-3.790970640E0,8.015866596E0
1.629242867E1,5.867055255E0,2.995990509E-1,-2.858807813E0,6.533366595E0
1.630247067E1,4.073226849E0,2.134237221E0,-1.612152200E0,4.872902646E0
1.631251267E1,3.047144290E0,4.132872834E0,2.934679529E-1,5.143136167E0
1.632255467E1,9.647011203E-1,5.447759022E0,9.170103523E-1,5.607997379E0
1.633259667E1,-1.653009911E0,5.696912389E0,-3.290159543E-1,5.941001939E0
1.634263767E1,-3.757427795E0,5.354963710E0,3.765890470E-1,6.552535332E0
1.635267967E1,-4.897974278E0,4.205548462E0,-1.429506817E-1,6.457338832E0
1.636272167E1,-5.294831529E0,3.125303437E0,-1.086431379E0,6.243644419E0
1.637276367E1,-4.810216927E0,2.468803207E0,-2.189296066E0,5.833197530E0
1.638280567E1,-4.315343969E0,1.853396038E0,-2.514861724E0,5.327457174E0
1.639284767E1,-4.024288578E0,1.408269730E0,-2.657620033E0,5.024048808E0
1.640288867E1,-4.005447095E0,1.066927992E0,-2.509346923E0,4.845489010E0
1.641293067E1,-4.050718870E0,7.139041007E-1,-2.490271844E0,4.808267493E0
1.642297267E1,-4.195239821E0,4.477394289E-1,-2.569928463E0,4.940145752E0
1.643301467E1,-4.157667660E0,4.711510956E-1,-2.609871670E0,4.931492052E0
1.644305667E1,-4.032417377E0,5.294314635E-1,-2.665204164E0,4.862509723E0
1.645309867E1,-3.967584327E0,5.276007003E-1,-2.310001308E0,4.621276223E0
1.646313967E1,-3.932390813E0,4.843313044E-1,-1.694726287E0,4.309335390E0
1.647318167E1,-3.686544631E0,4.420442408E-1,-9.505885729E-1,3.832705710E0
1.648322367E1,-3.157636493E0,6.456922370E-1,-1.029440323E-1,3.224621553E0
1.649326567E1,-2.719302603E0,1.000354518E0,3.345086825E-1,2.916712510E0
1.650330767E1,-1.696042203E0,1.623431479E0,1.967488664E-1,2.356013378E0
1.651334967E1,2.459198570E-1,2.824327952E0,2.902046219E-1,2.849828710E0
1.652339167E1,2.544759707E0,3.720326627E0,1.552348047E-1,4.510069847E0
1.653343267E1,5.263290478E0,3.947340682E0,7.495618835E-1,6.621598608E0
1.654347467E1,8.126090185E0,3.583536864E0,1.816987765E0,9.065126733E0
1.655351667E1,9.810626822E0,2.602049557E0,2.685976397E0,1.049921567E1
1.656355867E1,9.630096377E0,2.152494568E-1,3.151749809E0,1.013501926E1
1.657360067E1,5.782033231E0,-4.231368597E0,2.482742092E0,7.582901607E0
1.658364267E1,1.420877497E0,-7.437477046E0,1.677990679E0,7.755682458E0
1.659368367E1,1.654071766E0,-6.135771067E0,4.249973268E0,7.644992660E0
1.660372596E1,3.591537901E0,-2.691402614E0,7.852218883E0,9.044342647E0
1.661376796E1,5.387084804E0,-7.648567379E-1,5.299352596E0,7.595316086E0
1.662380996E1,6.716260418E0,-1.331655418E0,-2.191485848E0,7.189163399E0
1.663385196E1,6.849131377E0,-2.829361235E0,-7.173891581E0,1.031409744E1
1.664389396E1,1.536686573E0,-2.448743164E0,-4.125815245E0,5.037866626E0
