"Time (s)","Linear Acceleration x (m/s^2)","Linear Acceleration y (m/s^2)","Linear Acceleration z (m/s^2)","Absolute acceleration (m/s^2)"
3.120404168E-2,-7.574392524E-1,1.337535962E-1,4.109306216E-2,7.702550781E-1
4.124604167E-2,-8.440245295E-1,6.306549525E-1,1.524088454E-1,1.064580449E0
5.128904167E-2,-6.896109661E-1,6.370196468E-1,9.486522675E-3,9.388542534E-1
6.133104167E-2,-5.613528755E-1,4.986028960E-1,-2.637398314E-1,7.957892921E-1
7.137304168E-2,-1.711944875E-1,4.180595469E-1,-5.995600444E-1,7.507020609E-1
8.141504167E-2,1.715652010E-1,2.177000248E-1,-7.774990028E-1,8.254287482E-1
9.145804167E-2,3.726892465E-1,-3.474064708E-2,-7.617717469E-1,8.487640316E-1
1.015000417E-1,5.936096254E-1,-2.521831021E-1,-5.543932271E-1,8.504825422E-1
1.115420417E-1,6.681408674E-1,-4.238044363E-1,6.869776726E-2,7.941925472E-1
1.215840417E-1,4.938532028E-1,-6.660776773E-1,8.588489753E-1,1.193805688E0
1.316260417E-1,3.380833778E-1,-5.952243340E-1,1.385411210E0,1.545301459E0
1.416690417E-1,2.531148559E-1,-3.242126128E-1,1.618848431E0,1.670284764E0
1.517110417E-1,-1.865577543E-1,-2.490153730E-2,1.373807411E0,1.386640070E0
1.617530417E-1,-6.647942135E-1,3.353267080E-1,7.643357509E-1,1.067054116E0
1.717944583E-1,-5.317915459E-1,5.199975657E-1,2.359743279E-1,7.803099385E-1
1.818374583E-1,-3.099856062E-1,4.564804316E-1,-4.195733911E-1,6.931863321E-1
1.918794583E-1,3.549552262E-3,9.094028324E-2,-5.419854355E-1,5.495734225E-1
2.019214583E-1,2.727018589E-1,-1.592120808E-1,-3.381286937E-1,4.626508446E-1
2.119634583E-1,3.133633965E-1,-3.329542002E-1,-7.795800269E-2,4.638238544E-1
2.220054583E-1,9.534572169E-2,-3.566930187E-1,1.027121902E-2,3.693591940E-1
2.320484583E-1,-2.600439526E-1,-2.954653618E-1,-1.674741966E-1,4.277502119E-1
2.420904583E-1,-4.046339013E-1,-2.272879967E-1,-2.840770322E-1,5.441398605E-1
2.521324583E-1,-3.340078685E-1,-9.787888169E-2,-3.179236400E-1,4.713989526E-1
2.621744583E-1,-3.951058634E-1,1.517446017E-1,-3.929498488E-1,5.775332467E-1
2.722174583E-1,-7.941776007E-1,3.113911307E-1,-4.441357899E-1,9.617375409E-1
2.822594583E-1,-5.768289936E-1,4.299621391E-1,-1.601599145E-1,7.370551724E-1
2.923014583E-1,-1.190146659E-1,5.179989874E-1,-6.089816630E-2,5.349729230E-1
3.023434583E-1,1.187258135E-1,3.910486266E-1,-2.745793998E-2,4.095958809E-1
3.123854583E-1,1.032324462E-1,3.642701331E-1,-2.014535362E-1,4.288743348E-1
3.224284583E-1,1.276542194E-1,1.042184329E-1,-3.763186133E-1,4.108196444E-1
3.324704583E-1,-1.374569303E-1,-1.186470222E-1,-4.989896894E-1,5.310011616E-1
3.425124583E-1,-6.057222788E-1,-5.276322752E-1,-5.090942627E-1,9.510374678E-1
3.525544583E-1,-8.955265126E-1,-6.491865331E-1,-5.229258513E-1,1.223463255E0
3.625974583E-1,-1.007810449E0,-5.978134811E-1,-4.969636291E-1,1.272806233E0
3.726394583E-1,-1.126406454E0,-4.019205008E-1,-1.780231583E-1,1.209141775E0
3.826814583E-1,-1.237340706E0,-1.321872734E-1,2.180853564E-1,1.263347427E0
3.927234583E-1,-1.279157069E0,2.084532380E-2,4.075368977E-1,1.342670346E0
4.027654583E-1,-1.252142348E0,1.890755653E-2,3.940415239E-1,1.312816315E0
4.128084583E-1,-1.075414275E0,-1.798220542E-1,3.950302881E-1,1.159698565E0
4.228504583E-1,-9.546105802E-1,-3.837122713E-1,3.909506857E-1,1.100617511E0
4.328924583E-1,-1.071461411E0,-4.780160192E-1,3.145755243E-1,1.214696106E0
4.429344583E-1,-1.268740839E0,-4.601951677E-1,2.331898838E-1,1.369620543E0
4.529764583E-1,-1.507567146E0,-4.171356869E-1,1.392105103E-1,1.570394998E0
4.630194583E-1,-1.638814480E0,-2.948740621E-1,-8.712000489E-2,1.667409220E0
4.730614583E-1,-1.604654607E0,-1.248732837E-1,-4.068556970E-1,1.660132918E0
4.831034583E-1,-1.410129730E0,1.553488255E-2,-8.442490625E-1,1.643612992E0
4.931454583E-1,-1.093011617E0,1.850902493E-1,-1.418323433E0,1.800159480E0
5.031884583E-1,-7.773586696E-1,3.178166360E-1,-2.029389628E0,2.196296013E0
5.132304583E-1,-5.639829531E-1,3.762744668E-1,-2.529816563E0,2.619089744E0
5.232724583E-1,-7.133113392E-1,1.095673781E0,-3.203997604E0,3.460478977E0
5.333144583E-1,-5.774175158E-1,5.370093088E-1,-3.709830290E0,3.792707577E0
5.433564583E-1,-2.633049448E-1,4.568265867E-1,-3.150546452E0,3.194364251E0
5.533994583E-1,5.533273382E0,2.287015319E0,4.720446087E0,7.624314044E0
5.634414583E-1,8.991806715E0,3.252761336E0,5.399085630E0,1.098103683E1
5.734834583E-1,5.143040734E0,2.721914554E0,1.075647359E0,5.917491367E0
5.835254583E-1,4.074856176E0,2.058027682E0,-9.013956553E-1,4.653218770E0
5.935674583E-1,1.428163420E0,-2.790460879E-1,-1.322007512E0,1.966016616E0
6.036104583E-1,-9.432772145E-1,-8.472623520E-1,7.368035513E-1,1.466459979E0
6.136524583E-1,-1.882546747E0,-2.122558285E-1,8.601663530E-2,1.896426549E0
6.236944583E-1,-2.042877693E0,-3.963257387E-2,-5.777516842E-1,2.123373970E0
6.337364583E-1,-2.457316352E0,4.000188401E-1,-8.392795140E-1,2.627319704E0
6.437784583E-1,-2.926235565E0,-6.441102728E-2,-1.352058107E0,3.224137790E0
6.538214583E-1,-3.848193246E0,-1.250788425E0,-1.784870764E0,4.422536217E0
6.638634583E-1,-3.435436247E0,-2.124313912E0,-2.585485564E0,4.795796848E0
6.739054583E-1,6.893787586E-1,-9.939098628E-1,-4.060902380E0,4.237219375E0
6.839474583E-1,2.476880550E0,2.514007446E-1,-3.489091467E0,4.286245311E0
6.939904583E-1,9.221952246E-1,-1.886519346E-1,-2.854707745E0,3.005892529E0
7.040324583E-1,-1.317002441E0,-1.796228250E0,-3.338360773E0,4.013176299E0
7.140744583E-1,-1.873299814E0,-1.981331363E0,-2.351171261E0,3.600407263E0
7.241164583E-1,-1.486643324E0,-2.055509725E-1,-2.567003101E0,2.973527281E0
7.341584583E-1,-2.231488697E0,1.506527804E0,-2.597628477E0,3.741235295E0
7.442014583E-1,-2.813880147E0,2.214193656E0,-2.504589921E0,4.369616196E0
7.542434583E-1,-2.808045210E0,1.692576997E0,-1.633070614E0,3.662902459E0
7.642854583E-1,-2.039300659E0,1.786644517E-1,-1.443663511E0,2.504961576E0
7.743274583E-1,-4.815506610E-1,-1.055931060E0,-1.847960467E0,2.182163910E0
7.843694583E-1,3.148366025E-1,-9.160813759E-1,-1.836349651E0,2.076176104E0
7.944124583E-1,-8.741470456E-2,-1.033457287E0,-2.252346885E0,2.479665659E0
8.044544583E-1,6.260099244E-1,-7.297507860E-1,-2.408644713E0,2.593452137E0
8.144964583E-1,1.010418161E0,-5.469607582E-1,-2.705366934E0,2.939238197E0
8.245384583E-1,8.151006925E-1,-3.732580344E-1,-3.587535190E0,3.697853355E0
8.345804583E-1,7.713319445E-1,-1.634992594E-1,-4.379436470E0,4.449848174E0
8.446234583E-1,8.014608926E-1,-1.939286447E-1,-4.822930235E0,4.892913645E0
8.546654583E-1,5.550530854E-1,-4.080799578E-1,-4.025389901E0,4.083916874E0
8.647074583E-1,7.253435934E-1,-6.146378209E-1,-2.524872742E0,2.697940945E0
8.747494583E-1,6.345600155E-1,-1.847510085E0,5.276620960E-1,2.023459220E0
8.847914583E-1,2.071409766E0,-2.898658926E0,2.329545919E0,4.256729517E0
8.948344583E-1,2.919846897E0,-2.437487274E0,7.983928585E-1,3.886422683E0
9.048764583E-1,3.012639286E0,-2.389421846E0,4.118065345E-1,3.867158756E0
9.149184583E-1,4.316200002E0,-2.458596307E0,3.716303158E-1,4.981203404E0
9.249604583E-1,5.157786827E0,-2.151926511E0,-9.391400170E-1,5.667057140E0
9.350024583E-1,5.645642248E0,-2.399279959E0,-1.848943384E0,6.406903492E0
9.450454583E-1,5.482021952E0,-2.955144784E0,-2.171609116E0,6.595553921E0
9.550874583E-1,4.905646117E0,-2.927568730E0,-1.838582702E0,6.001367248E0
9.651294583E-1,4.251157329E0,-3.247880081E0,-1.346375198E0,5.516682865E0
9.751714583E-1,4.010352032E0,-3.986541585E0,-7.313095075E-1,5.701776111E0
9.852134583E-1,3.116283522E0,-3.963911398E0,3.500324553E-1,5.054338659E0
9.952564583E-1,2.015862679E0,-3.833927794E0,1.459799488E0,4.570964802E0
1.005298458E0,1.048599894E0,-3.874276506E0,2.111447991E0,4.535172852E0
1.015340458E0,6.685706377E-3,-2.996347774E0,2.384734279E0,3.829504179E0
1.025382458E0,-5.971556693E-1,-2.405092822E0,2.830944661E0,3.762354854E0
1.035424458E0,-1.013420121E0,-2.274940818E0,3.166086889E0,4.028210801E0
1.045467458E0,-1.291572754E0,-2.759956247E0,3.422023027E0,4.582113078E0
1.055509458E0,-1.284227482E0,-3.891524330E0,3.212645051E0,5.207138376E0
1.065551458E0,-1.873549637E0,-5.071685407E0,2.747770065E0,6.064851312E0
1.075593458E0,-4.054770405E0,-3.643652673E0,2.216272780E0,5.884660812E0
1.085636458E0,-5.293763242E0,-3.452993097E0,1.864834654E0,6.589741943E0
1.095678458E0,-6.793471146E0,-3.051706288E0,1.983630488E0,7.707071519E0
1.105720458E0,-8.530447367E0,-1.587764048E0,2.155821487E0,8.940754623E0
1.115762458E0,-9.676539057E0,-1.151897390E0,2.347479037E0,1.002361878E1
1.125804458E0,-1.067655502E1,-1.838262860E0,1.920503071E0,1.100256195E1
1.135847458E0,-1.339695105E1,-1.440544022E0,-9.064380017E-1,1.350463233E1
1.145889458E0,-1.359009394E1,-9.906165648E-1,-1.188419392E0,1.367787685E1
1.155931458E0,-1.258052304E1,-1.600601610E0,-2.311569531E0,1.289088202E1
1.165973458E0,-1.514382076E1,-1.583365772E0,-6.486191193E0,1.655031814E1
1.176016083E0,-1.435407711E1,5.037007910E-1,-7.904866628E0,1.639451617E1
1.186059083E0,-1.455256435E1,1.306094314E0,-6.543823689E0,1.600951717E1
1.196101083E0,-1.379672987E1,5.243724525E-1,-1.208799862E0,1.385950643E1
1.206143083E0,-1.077529227E1,-1.497742655E0,3.285151987E0,1.136408290E1
1.216185083E0,-7.363178816E0,-6.414500821E-1,3.491106710E0,8.174086282E0
1.226227083E0,-9.075754606E0,1.083728212E0,1.903531527E0,9.336338724E0
1.236270083E0,-9.446526550E0,2.186973844E0,-1.159236523E0,9.765426144E0
1.246312083E0,-8.306666822E0,-1.763356519E-1,-2.645062845E0,8.719413135E0
1.256354083E0,-5.406666545E0,-2.751960472E0,-7.056393537E-1,6.107639189E0
1.266396083E0,-2.240777584E0,-2.126728812E0,1.692254961E0,3.522468804E0
1.276438083E0,-1.639316610E0,-4.477803594E-1,4.329939204E0,4.651477154E0
1.286481083E0,-1.504585944E0,4.041677320E-1,4.768782095E0,5.016813041E0
1.296523083E0,-4.897335470E-1,3.938965130E-1,2.549611142E0,2.625930385E0
1.306565083E0,-1.342427158E0,-4.680029547E-1,7.792636925E-1,1.621230811E0
1.316607083E0,-1.086020028E0,-3.444653213E-2,8.864519262E-1,1.402292081E0
1.326649083E0,-2.602094288E0,1.962279380E0,6.476232800E-1,3.322777597E0
1.336692083E0,-4.174155346E0,3.595332452E0,-9.454631960E-1,5.589623328E0
1.346734083E0,-6.781673219E0,4.635054519E0,-5.479773113E0,9.874347341E0
1.356776083E0,-6.752627760E0,4.979903417E0,-8.362683148E0,1.184617614E1
1.366818083E0,-6.303581479E0,3.840448902E0,-4.557953133E0,8.675201668E0
1.376860083E0,-6.227292271E0,3.778211138E0,-2.577295370E0,7.726351005E0
1.386903083E0,-4.859788159E0,4.492424557E0,-4.235751085E0,7.857544566E0
1.396945083E0,-4.085879054E0,3.859305003E0,-5.653622528E0,7.971956500E0
1.406987083E0,-3.707033274E0,4.129428239E0,-5.295190548E0,7.670287884E0
1.417029083E0,-3.580628751E0,3.321593882E0,-5.702225170E0,7.507946461E0
1.427071083E0,-4.350834814E0,2.607218496E0,-4.802261497E0,6.984917133E0
1.437113083E0,-2.156695207E0,2.933669715E0,-2.479971973E0,4.405452667E0
1.447156083E0,-2.199561145E0,4.359127920E0,-5.141616937E0,7.090577563E0
1.457198083E0,-6.058846852E0,4.325152674E0,-5.139696711E0,9.046162342E0
1.467240083E0,-8.468431798E0,5.356985677E0,6.155296090E0,1.176007239E1
1.477282083E0,-9.529754063E0,6.293557597E0,1.348788461E1,1.767337294E1
1.487324083E0,-8.806228369E-1,1.415029112E0,1.506093940E0,2.246357702E0
1.497367083E0,3.390596874E0,7.523828727E-1,-2.562058403E-1,3.482508949E0
1.507409083E0,1.127141332E1,-3.547861247E0,9.678169845E0,1.527413006E1
1.517451083E0,1.612340246E1,-7.478161388E0,8.688362535E0,1.978319105E1
1.527493083E0,1.128104485E1,-8.258323798E0,5.256384916E0,1.493624676E1
1.537535083E0,7.074008274E0,-6.157968852E0,-2.121661030E0,9.615800485E0
1.547578083E0,5.395207756E0,-4.807920433E0,-5.752766747E0,9.236811726E0
1.557620083E0,3.204337912E0,-4.116964899E0,-2.845115973E0,5.942378845E0
1.567662083E0,7.549585712E-1,-3.553485391E0,-2.142033899E0,4.217289425E0
1.577704083E0,1.567071337E0,-4.226408696E0,-9.877994493E-1,4.614541233E0
1.587746083E0,2.438642684E0,-4.468763798E0,5.883117557E-1,5.124737920E0
1.597789083E0,3.207902375E0,-3.757899373E0,-4.611624068E-1,4.962370009E0
1.607831083E0,3.662304121E0,-1.665621479E0,-1.011817984E0,4.148559029E0
1.617873083E0,3.193207152E0,5.764930710E-1,1.625970340E-1,3.248900426E0
1.627915083E0,5.291286947E0,2.515898436E0,-5.552410734E-1,5.885214961E0
1.637957083E0,7.445719281E0,2.801496036E0,-1.251228136E0,8.053116633E0
1.648000083E0,1.892168341E0,9.498009530E-1,-1.051530519E0,2.363924557E0
1.658042083E0,-6.122440585E0,-1.256816905E0,8.023689651E-1,6.301401701E0
1.668084083E0,-7.248766347E0,-7.542674303E-1,2.859286115E0,7.828732337E0
1.678126083E0,-5.417296783E0,4.829063380E-1,3.483047200E0,6.458476660E0
1.688168083E0,-3.361509315E0,9.513063186E-1,2.937980282E0,4.564696783E0
1.698211083E0,-6.794224852E-1,1.291965103E0,2.199047760E0,2.639431717E0
1.708253083E0,2.182995983E0,1.269570851E0,1.685199126E0,3.035980518E0
1.718295083E0,4.175551661E0,3.392724091E-1,2.132608333E0,4.700888825E0
1.728337083E0,4.709199552E0,-8.575959170E-1,2.784994901E0,5.537890192E0
1.738379083E0,3.200435480E0,-9.587188339E-1,2.299585955E0,4.055862995E0
1.748422083E0,1.149042780E0,-4.188752335E-1,-9.398690186E-2,1.226617018E0
1.758464083E0,1.290392786E-1,-2.262124014E-1,-2.280505029E0,2.295327073E0
1.768506083E0,-6.517745107E-1,-4.460624474E-1,-3.523985896E0,3.611406695E0
1.778548083E0,-1.697244390E0,-5.638125068E-1,-4.772744168E0,5.096823516E0
1.788590083E0,-3.437009733E0,-5.561304349E-1,-6.434418776E0,7.316014075E0
1.798632083E0,-3.991008273E0,-2.409584945E-1,-4.756280748E0,6.213566977E0
1.808675083E0,-3.184467904E0,5.949343121E-1,-2.260614117E0,3.950336549E0
1.818717083E0,-2.587182426E0,-4.259638131E-2,-2.887238145E0,3.877044166E0
1.828759083E0,-2.729831684E0,-5.319200385E-1,-5.343861601E0,6.024265662E0
1.838801083E0,-4.428586995E0,6.322377938E-1,-5.814687592E0,7.336395518E0
1.848843083E0,-5.686820680E0,2.858366348E0,-2.587467478E0,6.870602272E0
1.858886083E0,-4.737086678E0,3.596029440E0,1.026011954E0,6.035239718E0
1.868928083E0,-7.216060531E-1,2.453561270E0,2.916633267E0,3.879101419E0
1.878970083E0,2.486129091E0,1.854273705E0,3.409569919E0,4.609157826E0
1.889012083E0,3.267631098E0,1.762312206E0,3.041577741E0,4.799411678E0
1.899054083E0,3.224499696E0,1.615599133E0,2.315071575E0,4.285687255E0
1.909097083E0,2.427911873E0,1.276297488E0,1.315214217E0,3.041953284E0
1.919139083E0,1.434506187E0,-3.807648361E-2,-1.499396832E0,2.075439394E0
1.929181083E0,4.023656201E-1,-2.009405599E0,-3.730078028E0,4.255947727E0
1.939223083E0,-4.403777844E-1,-2.267951934E0,-1.008380333E0,2.520787469E0
1.949265083E0,-1.568203942E0,-1.479893444E0,2.877315420E0,3.595593447E0
1.959308083E0,-2.676182896E-1,1.007786914E0,4.280002813E0,4.405187634E0
1.969350083E0,1.855867072E0,1.573298036E0,2.177434112E0,3.265077122E0
1.979392083E0,3.198895909E0,1.469938560E0,1.054056516E0,3.674872724E0
1.989434083E0,3.688506079E0,1.814859964E0,8.335835950E-1,4.194479157E0
1.999476083E0,3.450291391E0,3.341536980E0,1.313209937E0,4.979447802E0
2.009518083E0,3.015597100E0,4.572021534E0,2.019922986E0,5.837576179E0
2.019561083E0,2.566413409E0,4.931161028E0,2.455044708E0,6.077011715E0
2.029603083E0,2.672724560E0,4.720045552E0,3.475492598E0,6.442153009E0
2.039645083E0,3.039474790E0,3.883795481E0,4.961315703E0,6.995493395E0
2.049687083E0,3.649901592E0,3.468829696E0,5.225595818E0,7.256818362E0
2.059729083E0,4.377844858E0,3.472528644E0,5.399300222E0,7.770226745E0
2.069772083E0,4.688658576E0,3.245360808E0,4.792269191E0,7.448605910E0
2.079814083E0,4.173113957E0,3.039213127E0,3.102832003E0,6.023226956E0
2.089856083E0,4.483169876E0,2.429808125E0,-1.812051546E0,5.411682776E0
2.099898083E0,4.597781735E0,1.301578510E0,-2.896081474E0,5.587574733E0
2.109940083E0,4.505466186E0,2.742507863E-1,1.966010488E0,4.923376513E0
2.119983083E0,3.794709934E0,7.312785172E-1,6.462184864E0,7.529570039E0
2.130025083E0,2.946271634E0,2.122833397E0,6.064021053E0,7.068188559E0
2.140067083E0,2.456226138E0,2.783018543E0,3.328126391E0,4.985445248E0
2.150109083E0,1.789540350E0,3.173541797E0,-9.719575149E-1,3.770745763E0
2.160151083E0,1.193968107E0,2.831208955E0,-2.937430644E0,4.250859063E0
2.170193417E0,1.293225762E0,-1.923231089E-1,-2.098742868E0,2.472679251E0
2.180236417E0,-2.802880657E0,-1.232761810E1,-8.927102011E-1,1.267372240E1
2.190278417E0,-8.591982880E0,-2.715606695E1,1.474695562E0,2.852102503E1
2.200320417E0,-1.038093266E1,-2.945551725E1,3.979400380E0,3.148375592E1
2.210362417E0,-2.503448544E0,-1.247014398E1,3.247480423E0,1.312699031E1
2.220404417E0,2.445217878E0,4.217789608E-1,7.445031649E-1,2.590612461E0
2.230447417E0,2.471921234E0,3.704139780E0,-8.355302793E-1,4.530911271E0
2.240489417E0,5.620304947E-1,4.230899650E0,-3.106900788E0,5.279130860E0
2.250531417E0,-9.552099198E-1,2.341661350E0,-6.005271739E0,6.516064190E0
2.260573417E0,-1.563963249E0,-2.389067066E-1,-5.178777747E0,5.415052761E0
2.270615417E0,-1.098367885E0,-1.559461770E0,-3.061386353E0,3.606995901E0
2.280657417E0,1.360530138E-2,-1.881870809E0,-4.670071739E0,5.034996812E0
2.290700417E0,-1.876840011E-1,-1.960962002E0,-7.839692978E0,8.083401712E0
2.300742417E0,-1.641372783E0,-1.826003587E0,-7.192902049E0,7.600410094E0
2.310784417E0,-2.871843011E0,-1.801872128E0,-2.864199530E0,4.438227619E0
2.320826417E0,-3.457019197E0,-2.373525751E0,3.739461055E-1,4.210040607E0
2.330868417E0,-4.015156104E0,-3.161842103E0,1.131463126E0,5.234398994E0
2.340911417E0,-4.546764778E0,-3.642144091E0,-2.411347881E-1,5.830645720E0
2.350953417E0,-4.686830736E0,-4.035174631E0,-4.721894442E0,7.781086285E0
2.360995417E0,-4.534064918E0,-4.998286479E0,-1.027982144E1,1.229696472E1
2.371037417E0,-4.879408784E0,-5.596142060E0,-9.137731583E0,1.177385130E1
2.381079417E0,-4.675251203E0,-4.445417036E0,-5.964315501E0,8.785941374E0
2.391122417E0,-2.930654598E0,-2.339856314E0,-5.327212824E0,6.514818525E0
2.401164417E0,-2.606570332E0,-1.251917523E0,-5.270776083E0,6.011870499E0
2.411206417E0,-3.962627642E0,-2.091917413E0,-4.368688703E0,6.258112916E0
2.421248417E0,-5.312289560E0,-3.840496849E0,-4.441509342E0,7.918133723E0
2.431290417E0,-5.735585289E0,-5.704649425E0,-3.917685943E0,8.988227123E0
2.441332417E0,-4.139215894E0,-7.142377428E0,-2.337639635E0,8.579698281E0
2.451375417E0,-1.986110584E0,-7.568558173E0,-1.253462503E-1,7.825817513E0
2.461417417E0,-4.328818001E-1,-6.369711149E0,2.045246108E0,6.704001672E0
2.471459417E0,4.218766824E-1,-4.859044393E0,2.415787087E0,5.442822760E0
2.481501417E0,8.124917380E-1,-3.823905374E0,2.349672035E0,4.561069371E0
2.491543417E0,1.037875223E0,-3.544355257E0,2.733569809E0,4.594784333E0
2.501586417E0,1.108805165E0,-3.565464290E0,5.214288472E0,6.413328992E0
2.511628417E0,6.731607020E-4,-4.530803341E0,8.323531362E0,9.476779712E0
2.521670417E0,-7.909937918E-1,-5.878456156E0,2.613623536E0,6.481739423E0
2.531712417E0,4.788982178E-1,-6.106341446E0,-1.097695529E0,6.222675054E0
2.541754417E0,2.165925622E-2,-6.716770295E0,9.907931507E-1,6.789487712E0
2.551796417E0,2.626946416E-1,-6.006919484E0,3.049382604E0,6.741722661E0
2.561839417E0,1.058892748E0,-4.201564754E0,4.057552510E0,5.936171545E0
2.571881417E0,1.348641579E0,-1.580312941E0,3.955563036E0,4.467963970E0
2.581923417E0,1.778538229E0,7.767949980E-1,4.347040264E0,4.760605818E0
2.591965417E0,2.564136211E0,2.849262233E0,4.414650156E0,5.846556746E0
2.602007417E0,2.673451954E0,4.311752025E0,4.405527331E0,6.719168247E0
2.612050417E0,2.503152675E0,5.220720994E0,5.769531884E0,8.173689447E0
2.622092417E0,2.717820919E0,5.820421956E0,6.006982634E0,8.794754269E0
2.632134417E0,3.050025213E0,5.754911506E0,5.985587672E0,8.845841962E0
2.642176417E0,3.749825245E0,5.250518405E0,6.097559513E0,8.877463878E0
2.652218417E0,4.597533228E0,4.227616439E0,6.301174765E0,8.872139311E0
2.662260417E0,5.049495808E0,3.738644784E0,6.431124455E0,8.990786089E0
2.672303417E0,5.462562418E0,4.005313486E0,6.309609958E0,9.257067684E0
2.682345417E0,5.792286909E0,4.423488808E0,5.988980227E0,9.433224529E0
2.692387417E0,6.181614407E0,5.120482176E0,5.719416568E0,9.856136174E0
2.702429417E0,6.244413503E0,5.368749690E0,5.745727869E0,1.004139243E1
2.712471417E0,6.123038170E0,5.408355221E0,5.258838408E0,9.715826472E0
2.722514417E0,5.647671817E0,5.476850674E0,4.735052724E0,9.182200965E0
2.732556417E0,5.235076493E0,5.904383880E0,4.238947173E0,8.957480004E0
2.742598417E0,4.394725769E0,6.252080373E0,3.476626081E0,8.395775871E0
2.752640417E0,3.278495809E0,5.612822412E0,1.698626964E0,6.718455460E0
2.762682417E0,2.334204395E0,4.417871972E0,-4.947899267E-1,5.021047699E0
2.772724417E0,1.245742570E0,3.228779858E0,-3.738348623E0,5.094324720E0
2.782767417E0,-2.364184240E-1,1.551264558E0,-8.482993703E0,8.626905446E0
2.792809417E0,-2.461936821E0,-1.045447075E0,-1.361832898E1,1.387850772E1
2.802851417E0,-5.854590161E0,-5.044163733E0,-1.682547063E1,1.851529842E1
2.812893417E0,-1.016547446E1,-1.140753884E1,-1.489529305E1,2.133866370E1
2.822935417E0,-1.091195223E1,-1.807266769E1,-1.065172073E1,2.364637760E1
2.832977417E0,-7.531462852E0,-1.898729852E1,-8.004014940E0,2.193865750E1
2.843020417E0,-3.520366762E0,-1.012830254E1,-4.466140738E0,1.161558899E1
2.853062417E0,1.487379927E0,8.485912049E-1,-1.306661202E0,2.154012436E0
2.863104417E0,5.393140765E0,1.048233157E1,1.446846151E0,1.187680960E1
2.873146417E0,6.849541851E0,1.574818546E1,7.250329308E0,1.864105265E1
2.883188417E0,7.926238201E0,1.241724305E1,1.188539903E1,1.892817707E1
2.893230417E0,7.141130801E0,4.918895908E0,1.040238142E1,1.354255608E1
2.903273417E0,4.141327323E0,-9.271988332E-1,5.805999799E0,7.191656509E0
2.913315417E0,1.148020394E-1,-4.776252497E0,2.531828298E0,5.407025241E0
2.923357417E0,-1.744620870E0,-7.846960482E0,-1.858681337E0,8.250647678E0
2.933399417E0,-1.780403053E0,-1.090762529E1,-7.801750395E0,1.352824577E1
2.943441417E0,2.667856461E-1,-1.164199815E1,-4.380395121E0,1.244167018E1
2.953484417E0,3.078841754E0,-6.629988259E0,4.204141037E0,8.432722735E0
2.963526417E0,4.356760383E0,3.631103379E-1,7.277807713E0,8.489976164E0
2.973568417E0,5.035059033E0,4.276945889E0,8.484177765E0,1.075292323E1
2.983610417E0,4.380607082E0,5.049679411E0,7.820898857E0,1.028860727E1
2.993652417E0,3.570087683E0,4.831354319E0,5.471176536E0,8.125348196E0
3.003694417E0,2.404792275E0,3.765989288E0,5.124640131E0,6.799090945E0
3.013737417E0,1.965876295E0,2.247272086E0,6.787410507E0,7.415109091E0
3.023779417E0,2.706215365E0,1.692209353E0,6.461982551E0,7.207245839E0
3.033821417E0,2.557538797E0,1.912203825E0,5.123492907E0,6.037193697E0
3.043863417E0,1.927369017E0,1.794039783E0,3.897253432E0,4.703393922E0
3.053905417E0,1.404378262E0,5.269113135E-1,3.038368789E0,3.388450787E0
3.063947417E0,3.614750178E-1,-1.540877565E0,2.283571601E0,2.778428893E0
3.073990417E0,-1.065321688E0,-3.961867504E0,1.017528375E0,4.226898202E0
3.084032417E0,-2.275044022E0,-6.379854898E0,1.020860118E0,6.849856145E0
3.094074417E0,-2.533437451E0,-7.097693006E0,1.654508845E0,7.715759901E0
3.104116417E0,-1.940203217E0,-5.183376582E0,1.455341570E0,5.722744132E0
3.114158417E0,-1.579731143E0,-2.052658038E0,6.987001705E-1,2.682748112E0
3.124200417E0,-1.050302019E0,9.356866515E-1,-3.781201039E-1,1.456577719E0
3.134243417E0,-9.061988506E-1,2.316563931E0,-6.116918474E-1,2.561607253E0
3.144285417E0,-4.314824152E-1,3.064170213E0,1.389397842E-1,3.097518431E0
3.154327417E0,-1.393483291E0,2.465967307E0,2.550087690E-1,2.843909266E0
3.164369417E0,-2.687342599E0,1.364631375E0,-1.384012556E-1,3.017148313E0
3.174411292E0,-3.414410829E0,1.285940132E0,-1.517871402E-2,3.648571463E0
3.184454292E0,-3.866460825E0,1.690857477E0,4.206662357E-2,4.220223681E0
3.194496292E0,-4.047226912E0,1.459096652E0,-6.002558631E-1,4.343882575E0
3.204538292E0,-4.002882506E0,1.093591880E0,-1.605052803E0,4.449180380E0
3.214580292E0,-3.746056130E0,9.580002111E-1,-3.227554282E0,5.036646461E0
3.224622292E0,-3.165082630E0,1.210774174E0,-4.952450155E0,6.000873661E0
3.234664292E0,-2.356561224E0,1.457158300E0,-5.274546368E0,5.957980405E0
3.244707292E0,-1.754632765E0,1.178574142E0,-4.302813386E0,4.793952043E0
3.254749292E0,-1.389111036E0,5.082984567E-1,-2.981030408E0,3.327843007E0
3.264791292E0,-9.313825160E-1,-1.865963459E-2,-1.918019027E0,2.132280132E0
3.274833292E0,-5.379102185E-1,-5.659853321E-1,-1.403884318E0,1.606417747E0
3.284875292E0,-4.631228320E-1,-6.525825959E-1,-1.404461877E0,1.616434337E0
3.294917292E0,-9.983656604E-2,-6.240750808E-1,-2.257463929E0,2.344265437E0
3.304960292E0,5.512997211E-1,-1.036748757E0,-4.531344501E0,4.681010826E0
3.315002292E0,5.773689474E-1,-1.656869951E0,-5.925944903E0,6.180242384E0
3.325044292E0,-1.127068943E0,-2.174719250E0,-2.857464123E0,3.763613879E0
3.335086292E0,-2.949038829E0,-2.393924932E0,7.319412991E-2,3.799087256E0
3.345128292E0,-4.398242577E0,-2.069774008E0,1.378193407E0,5.052516133E0
3.355170292E0,-5.730364895E0,-2.035284791E0,1.365427181E0,6.232484047E0
3.365213292E0,-6.943951580E0,-2.115088175E0,-1.012709100E0,7.329231969E0
3.375255292E0,-7.650467139E0,-2.436977981E0,-6.166339726E0,1.012384585E1
3.385297292E0,-8.000468604E0,-2.393030893E0,-7.995790247E0,1.156143401E1
3.395339292E0,-8.418255086E0,-2.189405116E0,-5.349153916E0,1.021146224E1
3.405381292E0,-7.804133136E0,-2.090222306E0,-2.291120503E0,8.397782829E0
3.415423292E0,-5.997136508E0,-1.222009014E0,-2.398923863E0,6.573719497E0
3.425466292E0,-6.095404814E0,-1.480351866E0,-6.608262345E0,9.111231130E0
3.435508292E0,-5.937028300E0,-1.899557467E0,-7.577188078E0,9.811748202E0
3.445550292E0,-5.648906749E0,-2.551637787E0,-4.581414501E0,7.707811731E0
3.455592292E0,-5.593437138E0,-3.960806234E0,-2.485944904E0,7.290709643E0
3.465634292E0,-4.981345341E0,-6.304148659E0,-3.104869173E0,8.613727665E0
3.475676292E0,-2.435913496E0,-7.882239658E0,-2.687055209E0,8.676614678E0
3.485719292E0,-1.232903693E-1,-7.778836911E0,1.133628350E0,7.861972872E0
3.495761292E0,1.052816248E0,-6.402812821E0,3.985938152E0,7.615256859E0
3.505803292E0,1.835555891E0,-4.531405604E0,3.654662980E0,6.104053053E0
3.515845292E0,1.947855176E0,-3.665127742E0,2.172793761E0,4.684904895E0
3.525887292E0,2.152815434E0,-3.740246921E0,1.405027449E0,4.538519963E0
3.535929292E0,2.395965172E0,-4.071792819E0,2.218382163E0,5.219326134E0
3.545972292E0,2.946181587E0,-5.535702900E0,5.725278987E0,8.491337469E0
3.556014292E0,2.754852505E0,-7.285325478E0,5.745326750E0,9.678530835E0
3.566056292E0,1.190115011E0,-7.070363705E0,-3.830512436E-1,7.180051874E0
3.576098292E0,1.700927990E-1,-5.714860418E0,4.004158661E-2,5.717531328E0
3.586140292E0,-7.921459857E-1,-5.023219006E0,1.708012623E0,5.364469365E0
3.596182292E0,1.014885726E0,-4.144088963E0,3.725862186E0,5.664407771E0
3.606225292E0,3.571550072E0,-1.341132585E0,4.359869932E0,5.793364510E0
3.616267292E0,4.401826628E0,2.090405908E0,4.331826686E0,6.520015104E0
3.626309292E0,4.525062837E0,4.311559067E0,4.927572591E0,7.959064449E0
3.636351292E0,3.761989793E0,5.360258948E0,5.551526635E0,8.585126159E0
3.646393292E0,3.366990495E0,5.623240981E0,5.513485234E0,8.564810771E0
3.656435292E0,3.165782249E0,5.921898630E0,5.507802325E0,8.684868858E0
3.666478292E0,3.104995472E0,6.171826753E0,6.014773464E0,9.160237015E0
3.676520292E0,3.531348710E0,5.913705511E0,6.268813934E0,9.313450742E0
3.686562292E0,4.163783847E0,5.012394056E0,6.211218860E0,9.002245821E0
3.696604292E0,4.675330725E0,4.829721776E0,5.927742337E0,8.962313264E0
3.706646292E0,5.064401531E0,4.997059733E0,5.931718444E0,9.263047691E0
3.716688292E0,5.752632262E0,5.398072892E0,5.605409896E0,9.677426775E0
3.726731292E0,6.487395135E0,5.727969875E0,5.332337909E0,1.016512479E1
3.736773292E0,6.872310324E0,5.926825494E0,5.063260739E0,1.039194491E1
3.746815292E0,6.859706066E0,6.144601532E0,4.926113126E0,1.044405505E1
3.756857292E0,6.129257269E0,6.271098441E0,4.951566641E0,1.007037648E1
3.766899292E0,4.831321867E0,6.228461130E0,4.188907871E0,8.926496971E0
3.776941292E0,3.376072390E0,5.567577826E0,2.585929076E0,7.005912990E0
3.786984292E0,2.540759043E0,4.456120949E0,4.368872890E-1,5.148139560E0
3.797026292E0,1.440636262E0,2.926979331E0,-2.246937333E0,3.961233169E0
3.807068292E0,5.964643823E-1,1.385974882E0,-6.707279094E0,6.874902834E0
3.817110292E0,-1.693683290E0,-1.077223184E0,-1.384984129E1,1.399453739E1
3.827152292E0,-7.567673489E0,-5.993390781E0,-2.081105210E1,2.294101795E1
3.837194292E0,-1.220952540E1,-1.363660971E1,-1.732368966E1,2.520198123E1
3.847237292E0,-1.048065575E1,-1.963068403E1,-1.074757530E1,2.471271486E1
3.857279292E0,-7.889912374E0,-1.767305494E1,-8.317334483E0,2.106574568E1
3.867321292E0,-3.598791080E0,-7.548080054E0,-4.591203617E0,9.539599593E0
3.877363292E0,1.471583235E0,3.137088500E0,-9.660170361E-1,3.597230934E0
3.887405292E0,4.735476062E0,1.174775440E1,3.760292931E0,1.321265567E1
3.897447292E0,7.074391851E0,1.380303316E1,9.189259586E0,1.802812348E1
3.907490292E0,7.978975993E0,8.323975165E0,1.169015582E1,1.641987709E1
3.917532292E0,5.517696399E0,1.749923710E0,7.086058801E0,9.149832560E0
3.927574292E0,1.292614582E0,-3.113575092E0,1.645964601E0,3.751586568E0
3.937616292E0,-2.494973882E0,-6.507283269E0,1.812164982E0,7.200942448E0
3.947658292E0,-1.989387949E0,-9.615086575E0,-1.556708316E0,9.941372895E0
3.957700292E0,5.671720245E-1,-1.197446148E1,-6.096822764E0,1.344918807E1
3.967742292E0,5.664335212E0,-8.962739037E0,-9.596219364E-1,1.064595034E1
3.977785292E0,8.275988821E0,-1.129540561E0,7.426120584E0,1.117654328E1
3.987827292E0,7.583246963E0,4.484272953E0,1.011215604E1,1.341156360E1
3.997869292E0,5.800153168E0,6.113123047E0,8.835060990E0,1.220943704E1
4.007911292E0,4.423730882E0,6.233367528E0,7.848557357E0,1.095555194E1
4.017953292E0,2.705980307E0,4.971323798E0,6.702383806E0,8.772590176E0
4.027995292E0,2.107863063E0,2.720202489E0,6.857158434E0,7.672236315E0
4.038038292E0,1.794051770E0,1.310370383E0,6.395513742E0,6.770397944E0
4.048080292E0,1.168143587E0,2.175187612E-1,4.657684997E0,4.806860034E0
4.058122292E0,1.032191584E0,-1.577116853E-1,2.365215104E0,2.585446756E0
4.068164292E0,5.787693190E-1,-4.320338076E-1,9.715523028E-1,1.210595313E0
4.078206292E0,1.318830720E-1,-1.624088121E0,7.248652911E-1,1.783391449E0
4.088248292E0,-7.740804282E-1,-2.890673384E0,1.132733141E0,3.199730847E0
4.098291292E0,-1.848455141E0,-4.127261846E0,1.883450727E0,4.898822654E0
4.108333292E0,-3.030339977E0,-4.880404272E0,2.844730057E0,6.410444238E0
4.118375292E0,-3.218093195E0,-4.472506601E0,2.363289616E0,5.995379631E0
4.128417292E0,-2.144913068E0,-2.149290293E0,1.038653780E0,3.209190320E0
4.138459292E0,-1.030703029E0,6.323968381E-1,-1.180237821E-1,1.214991402E0
4.148501292E0,-1.524348655E-1,2.587501684E0,-3.607293516E-1,2.616969052E0
4.158544292E0,3.055687657E-1,2.752704238E0,-1.013831180E-1,2.771467378E0
4.168586292E0,-5.938791820E-1,1.426069239E0,-5.066261530E-2,1.545617242E0
4.178628167E0,-1.770212671E0,4.426529360E-1,-1.298871249E-1,1.829334630E0
4.188670167E0,-2.843819937E0,2.333039045E-1,-2.148167628E-1,2.861448722E0
4.198712167E0,-3.145961358E0,8.328598559E-1,-3.709631485E-1,3.275414792E0
4.208754167E0,-2.469514228E0,1.870933592E0,-1.064850330E0,3.276095123E0
4.218796167E0,-1.931477125E0,2.509186417E0,-2.014400291E0,3.752922713E0
4.228839167E0,-1.854918361E0,2.416098159E0,-3.134292946E0,4.370588600E0
4.238881167E0,-1.993484800E0,1.877502354E0,-4.164384064E0,4.984083805E0
4.248923167E0,-2.166993616E0,1.046687270E0,-4.051020586E0,4.711919286E0
4.258965167E0,-2.009440098E0,3.316429621E-1,-2.899962856E0,3.543673394E0
4.269007167E0,-2.001865615E0,1.657761651E-1,-1.797250489E0,2.695376967E0
4.279049167E0,-2.424953475E0,4.811673760E-3,-1.399836583E0,2.799993744E0
4.289092167E0,-2.367067502E0,-1.138102055E-2,-1.802055438E0,2.974986032E0
4.299134167E0,-1.880978816E0,-5.686709583E-2,-3.428749956E0,3.911219942E0
4.309176167E0,-1.079227025E0,-4.089495850E-1,-5.992818924E0,6.102937767E0
4.319218167E0,-6.316659361E-1,-1.136616862E0,-6.787180712E0,6.910623833E0
4.329260167E0,-1.485552672E0,-2.527276533E0,-4.053154235E0,5.002204780E0
4.339302167E0,-3.320039984E0,-3.368232443E0,-9.431517917E-1,4.822570952E0
4.349345167E0,-4.744823421E0,-2.936775756E0,1.077147024E0,5.683154656E0
4.359387167E0,-5.535454978E0,-2.746085190E0,1.797330011E0,6.435265406E0
4.369429167E0,-5.173547412E0,-2.937292065E0,6.441871637E-1,5.983999883E0
4.379471167E0,-4.038977076E0,-2.895168139E0,-5.719646364E0,7.576918166E0
4.389513167E0,-4.314677095E0,-3.480545762E0,-1.088183439E1,1.221249184E1
4.399555167E0,-6.545977803E0,-4.620848708E0,-7.026321307E0,1.065698172E1
4.409597167E0,-5.817002504E0,-3.859873352E0,-2.477527837E0,7.407717909E0
4.419640167E0,-2.644972798E0,-1.221924230E0,-4.223443281E0,5.130931014E0
4.429682167E0,-3.950718033E0,-1.726448894E0,-7.852177953E0,8.957985117E0
4.439724167E0,-4.988240377E0,-2.920897642E0,-8.064349435E0,9.922092365E0
4.449766167E0,-5.006669047E0,-3.606055661E0,-6.145781500E0,8.708673988E0
4.459808167E0,-5.551326075E0,-4.873378258E0,-2.652692292E0,7.848809670E0
4.469850167E0,-5.709354680E0,-6.598837218E0,-5.424508739E-1,8.742747648E0
4.479893167E0,-3.203285413E0,-7.172778856E0,2.991639449E-1,7.861252637E0
4.489935167E0,2.541236468E-2,-5.686987326E0,1.581324509E0,5.902800846E0
4.499977167E0,1.028261085E0,-4.962808498E0,1.709137042E0,5.348638936E0
4.510019167E0,1.432434080E0,-4.548947836E0,7.550427711E-1,4.828548788E0
4.520061167E0,1.469225638E0,-4.307716861E0,5.621338077E-1,4.585961508E0
4.530103167E0,2.024548134E0,-4.300792004E0,3.650370685E-1,4.767479320E0
4.540145167E0,2.842583544E0,-4.842090392E0,5.096318557E0,7.582782036E0
4.550188167E0,1.601230917E0,-6.970569860E0,7.863459570E0,1.062952403E1
4.560230167E0,1.528604697E0,-7.431104166E0,-1.031795069E0,7.656535934E0
4.570272167E0,7.752728216E-1,-6.540740452E0,-2.155238958E0,6.930179549E0
4.580314167E0,-9.161826789E-2,-5.865194671E0,1.976262996E0,6.189872201E0
4.590356167E0,-1.159347913E-1,-4.442325613E0,4.368921422E0,6.231787233E0
4.600398167E0,1.112814016E0,-2.918804923E0,5.273357044E0,6.129116717E0
4.610441167E0,3.005510361E0,-6.168537694E-1,5.194773974E0,6.033181395E0
4.620483167E0,4.182435588E0,1.933250878E0,5.706459138E0,7.334432650E0
4.630525167E0,4.261383817E0,3.676111152E0,5.646287781E0,7.972060646E0
4.640567167E0,3.139229751E0,4.496410604E0,6.523502276E0,8.522238772E0
4.650609167E0,2.688103614E0,5.023616617E0,6.416170785E0,8.580785075E0
4.660651167E0,2.444041564E0,5.630618997E0,6.567300260E0,8.989251480E0
4.670693167E0,2.541966200E0,5.994988241E0,7.098680601E0,9.632898963E0
4.680736167E0,3.354350569E0,5.791606293E0,7.239241233E0,9.859055980E0
4.690778167E0,4.230164948E0,5.296961085E0,7.093777125E0,9.811919594E0
4.700820167E0,4.812212289E0,5.311741676E0,6.952629433E0,9.985541687E0
4.710862167E0,5.351364164E0,5.711493591E0,6.703607043E0,1.030517369E1
4.720904167E0,5.741257088E0,6.104894260E0,6.417532017E0,1.055540071E1
4.730946167E0,5.909283262E0,6.281580160E0,6.006111399E0,1.050957906E1
4.740988167E0,6.213847768E0,6.355908796E0,5.518750652E0,1.046260434E1
4.751031167E0,6.289292053E0,6.549183832E0,5.117210659E0,1.042270830E1
4.761073167E0,5.886489646E0,6.949717519E0,4.443530724E0,1.013381958E1
4.771115167E0,5.569698611E0,7.499420695E0,3.679677661E0,1.004006380E1
4.781157167E0,4.738919780E0,7.233889861E0,2.247788980E0,8.935271596E0
4.791199167E0,3.278216313E0,5.525927525E0,2.591982991E-2,6.425204202E0
4.801241167E0,1.828736722E0,2.856593472E0,-3.528949305E0,4.894679506E0
4.811284167E0,-5.765522741E-1,-4.428453094E-1,-9.485285404E0,9.513104839E0
4.821326167E0,-4.977876188E0,-5.140839842E0,-2.041765611E1,2.163534531E1
4.831368167E0,-1.236114954E1,-1.426849024E1,-2.591821373E1,3.206464774E1
4.841410167E0,-1.252857287E1,-2.326497414E1,-1.537635751E1,3.057215286E1
4.851452167E0,-7.361370272E0,-2.240577492E1,-8.880299728E0,2.520056042E1
4.861494167E0,-4.582331344E0,-1.241418613E1,-6.789627771E0,1.487309057E1
4.871536167E0,4.052076593E-2,-8.491654015E-1,-1.914890913E0,2.095120765E0
4.881579167E0,3.729701468E0,1.014915722E1,2.287651203E0,1.105212257E1
4.891621167E0,6.549311886E0,1.958757602E1,6.020428306E0,2.151306992E1
4.901663167E0,6.601741530E0,2.098505822E1,1.213443662E1,2.512369821E1
4.911705167E0,5.047411276E0,1.389825858E1,1.483902178E1,2.094837749E1
4.921747167E0,2.190224019E0,4.815441706E0,1.067003654E1,1.190946010E1
4.931789167E0,5.859392479E-2,-8.155392337E-1,7.132342436E0,7.179056074E0
4.941831167E0,-2.866941875E0,-4.703579208E0,4.222845403E0,6.940852713E0
4.951874167E0,-4.135555537E0,-9.500972314E0,-3.794912833E0,1.103506493E1
4.961916167E0,-3.386057973E0,-1.871412245E1,-1.681763068E1,2.538732892E1
4.971958167E0,2.336944401E0,-2.449809345E1,-7.839584219E0,2.582783329E1
4.982000167E0,7.111661419E0,-1.591137541E1,5.213191534E0,1.819134304E1
4.992042167E0,8.303004127E0,-1.241193144E0,8.887552614E0,1.222575271E1
5.002084167E0,7.732049246E0,6.747871050E0,8.064761664E0,1.305215423E1
5.012126167E0,7.398434018E0,9.715767442E0,6.102423227E0,1.365183256E1
5.022169167E0,6.374790040E0,9.936454225E0,4.095228167E0,1.249567783E1
5.032211167E0,4.125872548E0,7.902665151E0,5.199134828E0,1.032017169E1
5.042253167E0,2.769892713E0,4.765965491E0,7.770685308E0,9.527343956E0
5.052295167E0,2.069684545E0,2.555002860E0,8.662165840E0,9.265244237E0
5.062337167E0,1.603495397E0,1.500161648E0,7.125129311E0,7.455813179E0
5.072379167E0,8.870519236E-1,6.661159766E-1,5.646969566E0,5.754896775E0
5.082421167E0,2.100275277E-1,-7.642217302E-1,4.033506421E0,4.110635044E0
5.092464167E0,-9.238828772E-1,-3.251337247E0,2.795457324E0,4.386266649E0
5.102506167E0,-3.248960354E0,-7.072026653E0,1.331192318E0,7.895655599E0
5.112548167E0,-6.337077838E0,-1.088325292E1,4.299744183E-1,1.260113597E1
5.122590167E0,-5.480473609E0,-8.173652022E0,5.724459938E-1,9.857579458E0
5.132632167E0,-2.339624472E0,-1.915896927E0,-8.420375725E-1,3.139033446E0
5.142674167E0,-3.995221192E-1,2.199776908E0,-2.083146590E0,3.055836396E0
5.152717167E0,3.985225376E-1,3.267515323E0,-1.732120108E0,3.719639320E0
5.162759167E0,2.917169859E-1,3.174240539E0,-1.482474405E0,3.515484627E0
5.172801542E0,-6.521133569E-1,2.426449485E0,-6.584286422E-1,2.597390461E0
5.182843542E0,-1.789418144E0,1.108050874E0,2.505596226E-1,2.119569333E0
5.192885542E0,-2.781195965E0,3.932252526E-1,7.004800630E-1,2.894883316E0
5.202927542E0,-3.006919832E0,9.515647656E-1,6.309760378E-1,3.216391322E0
5.212969542E0,-2.680164850E0,2.016747948E0,4.566418147E-1,3.385125944E0
5.223012542E0,-2.293342591E0,2.668641157E0,2.822475846E-1,3.529975859E0
5.233054542E0,-2.333747728E0,2.709646511E0,-8.902034998E-2,3.577217815E0
5.243096542E0,-2.443339752E0,2.308081959E0,-1.986770443E0,3.904408824E0
5.253138542E0,-2.531652296E0,1.658475012E0,-5.485236751E0,6.264792489E0
5.263180542E0,-2.439266289E0,9.325449425E-1,-6.449187089E0,6.957849826E0
5.273222542E0,-2.241047725E0,2.316158134E-1,-4.517630149E0,5.048259399E0
5.283264542E0,-2.142480918E0,4.188769877E-2,-2.632297204E0,3.394255093E0
5.293307542E0,-2.168447818E0,1.277640009E-1,-1.452777566E0,2.613245537E0
5.303349542E0,-1.868890575E0,5.551048332E-1,-8.463537678E-1,2.125372452E0
5.313391542E0,-1.303356063E0,5.225428587E-1,-1.208838307E0,1.852856746E0
5.323433542E0,-7.068874419E-1,-2.042683858E-1,-3.071319603E0,3.158230444E0
5.333475542E0,-8.250503147E-1,-1.620928870E0,-5.879816803E0,6.154702598E0
5.343517542E0,-1.627655507E0,-2.595071490E0,-5.796736640E0,6.556356775E0
5.353559542E0,-2.896708295E0,-2.841935087E0,-2.051987655E0,4.547325294E0
5.363602542E0,-4.174245686E0,-2.682272186E0,1.110637683E0,5.084528217E0
5.373644542E0,-4.971953543E0,-2.756393246E0,1.993165981E0,6.024179312E0
5.383686542E0,-5.020649155E0,-3.048497336E0,5.930441996E-1,5.903554469E0
5.393728542E0,-4.148813221E0,-3.576797948E0,-5.773503898E0,7.958610555E0
5.403770542E0,-5.195061073E0,-4.741045243E0,-9.692006696E0,1.197502248E1
5.413812542E0,-7.575049167E0,-5.224505312E0,-5.623469022E0,1.078425841E1
5.423854542E0,-5.999703435E0,-3.453913448E0,-3.166953154E0,7.612854373E0
5.433897542E0,-3.287837029E0,-5.716097689E-1,-5.342741860E0,6.299325411E0
5.443939542E0,-4.864627022E0,-1.332154770E0,-6.784756456E0,8.454120449E0
5.453981542E0,-5.452333299E0,-2.634378228E0,-6.727462513E0,9.051333544E0
5.464023542E0,-5.173125828E0,-3.753345269E0,-6.048715382E0,8.799760753E0
5.474065542E0,-5.624401068E0,-5.841297686E0,-3.038606771E0,8.659548321E0
5.484107542E0,-4.689895847E0,-7.912072152E0,-4.239267162E-1,9.207373276E0
5.494149542E0,-1.437889678E0,-7.903360970E0,1.307980626E0,8.138885346E0
5.504192542E0,1.049905943E0,-6.346381928E0,2.490164255E0,6.897810093E0
5.514234542E0,1.491280312E0,-5.632147459E0,1.936518887E0,6.139634140E0
5.524276542E0,1.860649217E0,-5.028722990E0,4.025714421E-1,5.377000482E0
5.534318542E0,1.652654985E0,-4.845426813E0,-4.525826776E-1,5.139480575E0
5.544360542E0,2.444338895E0,-5.002813978E0,-5.375345349E-2,5.568287866E0
5.554402542E0,3.094651456E0,-5.787033185E0,7.580184191E0,1.002625619E1
5.564444542E0,6.339618453E-1,-7.358167752E0,7.335305139E0,1.040919026E1
5.574486542E0,6.423583008E-2,-6.780946995E0,-2.222657647E0,7.136215762E0
5.584529542E0,-1.086592397E0,-6.432920719E0,-1.417397672E0,6.676239075E0
5.594571542E0,-1.079248367E0,-6.067598380E0,2.900449344E0,6.811250512E0
5.604613542E0,6.497565635E-1,-4.471945853E0,5.091378829E0,6.807541531E0
5.614655542E0,2.568240371E0,-2.124348995E0,5.713757048E0,6.614811930E0
5.624697542E0,2.670427189E0,2.045519173E0,7.067329584E0,7.827035040E0
5.634739542E0,4.857927575E0,3.484493802E0,3.937608868E0,7.158625635E0
5.644781542E0,6.358730662E0,4.285901484E0,5.326228738E0,9.336547528E0
5.654824542E0,3.722836252E0,5.255251726E0,6.124846129E0,8.887683645E0
5.664866542E0,2.366153874E0,5.616022593E0,6.336915286E0,8.791751205E0
5.674908542E0,2.530320008E0,5.950057651E0,6.692724205E0,9.305818754E0
5.684950542E0,3.467286031E0,6.127358093E0,7.052006371E0,9.964807247E0
5.694992542E0,3.953807410E0,5.621319001E0,7.207710707E0,9.959061903E0
5.705034542E0,4.060072076E0,5.309077100E0,7.157768469E0,9.793065627E0
5.715076542E0,4.357130219E0,5.338141855E0,7.231286681E0,9.988585949E0
5.725118542E0,4.817996355E0,5.694797451E0,6.977889404E0,1.021443818E1
5.735161542E0,5.432957965E0,5.818529212E0,6.442287959E0,1.024086855E1
5.745203542E0,6.066490917E0,6.002337606E0,5.952694745E0,1.040504414E1
5.755245542E0,6.836676223E0,6.212888825E0,5.440254121E0,1.072084391E1
5.765287542E0,7.412463827E0,6.700217997E0,4.920662352E0,1.113779418E1
5.775329542E0,7.338602968E0,7.432608070E0,4.221386523E0,1.126582711E1
5.785371542E0,5.783238342E0,7.612341539E0,3.354561945E0,1.013146955E1
5.795413542E0,4.814387746E0,6.591318283E0,1.074622343E0,8.232777129E0
5.805456542E0,3.934666842E0,4.997783033E0,-1.401503917E0,6.513344120E0
5.815498542E0,1.783119231E0,2.593676344E0,-4.998886403E0,5.907244403E0
5.825540542E0,-1.512758158E0,-1.019325809E0,-1.111606215E1,1.126473702E1
5.835582542E0,-6.037017442E0,-6.226876534E0,-2.124998855E1,2.295172290E1
5.845624542E0,-1.216131978E1,-1.546535447E1,-2.380927975E1,3.088618931E1
5.855666542E0,-1.138250925E1,-2.448024541E1,-1.404851565E1,3.043361175E1
5.865708542E0,-7.215906749E0,-2.387024750E1,-8.477910719E0,2.633881159E1
5.875750542E0,-3.440124837E0,-1.319810947E1,-5.166791539E0,1.458493357E1
5.885793542E0,9.020142907E-1,4.750967968E-1,-7.906113839E-1,1.290121354E0
5.895835542E0,3.737945165E0,1.382385393E1,2.754896944E0,1.458288821E1
5.905877542E0,7.027376729E0,2.303473652E1,7.521019140E0,2.522991952E1
5.915919542E0,8.361304375E0,2.290004941E1,1.493266377E1,2.858860125E1
5.925961542E0,6.499509396E0,1.415919642E1,1.651785797E1,2.270608063E1
5.936003542E0,3.423742400E0,4.273322954E0,1.239679066E1,1.355225885E1
5.946045542E0,8.428227805E-1,-1.756542174E0,8.393129600E0,8.616287782E0
5.956088542E0,-2.104025681E0,-6.787643226E0,-1.019638927E0,7.179045074E0
5.966130542E0,-5.464772666E0,-1.553116722E1,-1.590376935E1,2.289128164E1
5.976172542E0,-4.716565289E0,-2.732892000E1,-1.610824648E1,3.207166134E1
5.986214542E0,1.323481449E0,-2.351296859E1,3.136345027E0,2.375811346E1
5.996256542E0,4.103274813E0,-7.514516451E0,1.095827387E1,1.390642254E1
6.006298542E0,6.208965343E0,4.600249552E0,9.004328527E0,1.186555851E1
6.016340542E0,6.641141238E0,9.369305881E0,3.809424745E0,1.209960192E1
6.026382542E0,7.298775244E0,1.019364634E1,3.094036621E0,1.291338873E1
6.036425542E0,6.352171841E0,8.749803908E0,3.603344307E0,1.139707180E1
6.046467542E0,4.238277960E0,5.971713399E0,5.363462638E0,9.076953919E0
6.056509542E0,2.654146494E0,3.122845268E0,7.606691959E0,8.640510328E0
6.066551542E0,2.287463946E0,2.082364233E0,6.856172594E0,7.521690949E0
6.076593542E0,1.512658902E0,1.559019136E0,5.715545712E0,6.114420692E0
6.086635542E0,7.754068691E-1,4.538298887E-1,4.573043042E0,4.660465647E0
6.096677542E0,-3.852546206E-1,-1.435385023E0,4.542480816E0,4.779422899E0
6.106719542E0,-2.288295566E0,-4.723887173E0,4.048525579E0,6.628873659E0
6.116762542E0,-4.745983216E0,-8.678840929E0,3.318819378E0,1.043365701E1
6.126804542E0,-5.843999684E0,-9.625879365E0,2.838752448E0,1.161328555E1
6.136846542E0,-4.201358348E0,-5.412261161E0,5.288139610E-1,6.871944924E0
6.146888542E0,-1.667268054E0,1.326090038E-2,-3.865218292E0,4.209497721E0
6.156930542E0,-4.039399830E-1,2.591844996E0,-3.671065589E0,4.511934236E0
6.166972542E0,9.473161787E-2,2.928294954E0,-1.746610093E0,3.410943013E0
6.177014167E0,-1.394741831E-1,2.490940180E0,-1.118494002E0,2.734093060E0
6.187057167E0,-1.028902379E0,1.641919205E0,-3.623642331E-1,1.971255087E0
6.197099167E0,-2.297049725E0,5.564198720E-1,2.511285567E-1,2.376784817E0
6.207141167E0,-2.987385162E0,4.917128295E-1,3.811770648E-1,3.051482847E0
6.217183167E0,-2.659688778E0,1.552226425E0,1.476164675E-1,3.083041014E0
6.227225167E0,-2.157819919E0,2.506846946E0,-2.061367904E-1,3.314055037E0
6.237267167E0,-1.998560184E0,2.822890121E0,-8.455565000E-1,3.560606302E0
6.247309167E0,-2.239023711E0,2.406179527E0,-2.493639255E0,4.125671319E0
6.257351167E0,-2.344715350E0,1.384831751E0,-4.667873771E0,5.404118299E0
6.267393167E0,-2.011448909E0,6.457477856E-1,-4.603773669E0,5.065337986E0
6.277436167E0,-1.922076264E0,3.011514866E-1,-2.649180454E0,3.286826199E0
6.287478167E0,-2.103784045E0,9.814142168E-2,-9.592123389E-1,2.314222841E0
6.297520167E0,-2.170301971E0,-2.998919964E-2,-1.315155745E-1,2.174489904E0
6.307562167E0,-1.953308289E0,6.339434266E-2,-1.254882646E-1,1.958361412E0
6.317604167E0,-1.688419480E0,1.204280841E-1,-7.471364585E-1,1.850263806E0
6.327646167E0,-1.230109747E0,-2.913954073E-1,-2.975942745E0,3.233313547E0
6.337688167E0,-7.323129628E-1,-7.142414850E-1,-7.151609012E0,7.224398566E0
6.347730167E0,-7.188816161E-1,-1.699356405E0,-7.391296322E0,7.618127348E0
6.357773167E0,-1.865374060E0,-2.941765185E0,-3.311180575E0,4.805987889E0
6.367815167E0,-3.475671523E0,-2.816480404E0,-8.625403225E-2,4.474404335E0
6.377857167E0,-4.347078563E0,-1.964324736E0,1.426370810E0,4.978975536E0
6.387899167E0,-4.397260245E0,-1.891204720E0,1.797363340E0,5.113029232E0
6.397941167E0,-4.543352928E0,-2.517249727E0,-5.502341026E-1,5.223156094E0
6.407983167E0,-4.127254537E0,-3.947496217E0,-6.700933696E0,8.804514115E0
6.418025167E0,-4.284107851E0,-5.816003215E0,-8.936560467E0,1.149093497E1
6.428067167E0,-5.451004227E0,-5.619846672E0,-5.823926777E0,9.757778784E0
6.438110167E0,-4.861461632E0,-3.613825441E0,-3.928788636E0,7.220036265E0
6.448152167E0,-3.515181451E0,-1.510700669E0,-4.615383316E0,5.995037973E0
6.458194167E0,-4.800928040E0,-2.029356299E0,-4.623699811E0,6.967481394E0
6.468236167E0,-5.635768055E0,-3.539864595E0,-4.756197132E0,8.180093770E0
6.478278167E0,-5.836522264E0,-5.142322111E0,-5.174335032E0,9.342494949E0
6.488320167E0,-6.304408860E0,-6.838851387E0,-3.281028239E0,9.863093108E0
6.498362167E0,-4.535644836E0,-7.252289879E0,-1.586674127E0,8.699730878E0
6.508404167E0,-1.176172399E0,-6.168549389E0,-8.465955502E-1,6.336490124E0
6.518447167E0,9.042701465E-1,-4.819187433E0,8.718210232E-1,4.980195167E0
6.528489167E0,1.275132723E0,-4.033123428E0,2.605750844E0,4.968096770E0
6.538531167E0,1.325603549E0,-3.658199961E0,2.461957287E0,4.604441921E0
6.548573167E0,1.285420314E0,-3.327045826E0,1.405173630E0,3.833543040E0
6.558615167E0,1.869119494E0,-3.596672634E0,1.374290975E0,4.279992687E0
6.568657167E0,2.257664050E0,-3.710439570E0,5.778591560E0,7.228867766E0
6.578699167E0,1.498639910E0,-5.006925740E0,6.717636852E0,8.511279094E0
6.588741167E0,9.280195630E-1,-5.346430283E0,3.305748220E-1,5.436434199E0
6.598784167E0,6.354771513E-1,-4.871233499E0,-4.454056589E-1,4.932659852E0
6.608826167E0,9.952838123E-3,-4.663349780E0,2.140625889E0,5.131199609E0
6.618868167E0,3.313157373E-1,-4.005869556E0,4.119590299E0,5.755674179E0
6.628910167E0,1.633416477E0,-2.158120759E0,5.336768929E0,5.983864737E0
6.638952167E0,3.301369532E0,5.373094171E-1,5.513923191E0,6.449115533E0
6.648994167E0,3.736490962E0,3.005925513E0,6.024048902E0,7.699747923E0
6.659036167E0,3.492249841E0,4.457451190E0,5.548984265E0,7.928171696E0
6.669078167E0,2.712793190E0,5.132564278E0,5.822226992E0,8.221969965E0
6.679120167E0,2.029548380E0,5.305585143E0,6.005641283E0,8.266560806E0
6.689163167E0,1.675432960E0,5.406150820E0,6.192526481E0,8.389334092E0
6.699205167E0,2.189325448E0,5.413501355E0,6.516195595E0,8.749854163E0
6.709247167E0,3.032509002E0,4.918346270E0,6.650115545E0,8.809669553E0
6.719289167E0,3.673786299E0,4.378057696E0,6.704509853E0,8.809911880E0
6.729331167E0,4.363019535E0,4.295141255E0,6.636975682E0,9.029597115E0
6.739373167E0,5.049192923E0,4.186124597E0,6.779350705E0,9.432793027E0
6.749415167E0,5.732575142E0,4.355120239E0,6.484216003E0,9.688887822E0
6.759457167E0,6.133853765E0,4.933101718E0,5.915692395E0,9.846576618E0
6.769499167E0,6.637155776E0,5.340164992E0,5.339925256E0,1.005405394E1
6.779542167E0,6.777555610E0,6.018811551E0,4.602561249E0,1.016587048E1
6.789584167E0,6.411068505E0,7.015812106E0,3.802526200E0,1.023633843E1
6.799626167E0,5.974432939E0,7.851535344E0,2.864106267E0,1.027343958E1
6.809668167E0,4.950910583E0,7.844626274E0,7.816514030E-1,9.309170526E0
6.819710167E0,3.657144538E0,5.874242653E0,-1.275437363E0,7.036204473E0
6.829752167E0,2.165077922E0,3.113828861E0,-3.724182573E0,5.315357789E0
6.839794167E0,-5.597837752E-1,2.536796969E-1,-7.137237725E0,7.163649462E0
6.849836167E0,-3.614451678E0,-2.899689206E0,-1.384302695E1,1.459800855E1
6.859879167E0,-8.482689648E0,-8.508262446E0,-2.024061879E1,2.353782493E1
6.869921167E0,-1.133230856E1,-1.551425357E1,-1.644972387E1,2.529242370E1
6.879963167E0,-8.507147967E0,-2.009863202E1,-1.014375907E1,2.406704020E1
6.890005167E0,-5.097378657E0,-1.785863621E1,-7.467183241E0,2.001681748E1
6.900047167E0,-2.538131889E0,-8.345204651E0,-3.062816290E0,9.244749741E0
6.910089167E0,4.393423887E-1,2.982641900E0,8.802427679E-2,3.016110527E0
6.920131167E0,2.776947379E0,1.267978304E1,3.633579090E0,1.347928899E1
6.930173167E0,5.044543217E0,1.563677496E1,9.943639283E0,1.920500220E1
6.940215167E0,5.879995143E0,1.083975315E1,1.340491964E1,1.821445749E1
6.950258167E0,4.234339860E0,3.832289112E0,9.520758707E0,1.110229347E1
6.960300167E0,2.196142863E0,-1.239351856E0,3.748342976E0,4.517644471E0
6.970342167E0,-2.519660242E-1,-5.054872323E0,-2.043271503E-1,5.065271036E0
6.980384167E0,-1.623815056E0,-9.147411064E0,-3.270187501E0,9.849163964E0
6.990426167E0,-1.349508429E0,-1.379944063E1,-8.301757500E0,1.616059753E1
7.000468167E0,1.799045877E0,-1.437158601E1,-4.706912998E0,1.522938214E1
7.010510167E0,6.291781797E0,-5.234148540E0,6.438486684E0,1.041330591E1
7.020552167E0,8.276139679E0,4.574013680E0,1.288730306E1,1.598432574E1
7.030594167E0,6.975285054E0,8.734698796E0,6.618510175E0,1.299054431E1
7.040637167E0,6.321721296E0,9.228789688E0,3.730836997E0,1.179211024E1
7.050679167E0,5.081224555E0,7.151474526E0,3.755570719E0,9.542889620E0
7.060721167E0,3.831520203E0,3.759937420E0,4.694645247E0,7.131435372E0
7.070763167E0,3.049980775E0,1.114947665E0,7.351917078E0,8.037174612E0
7.080805167E0,2.844532421E0,3.880545598E-1,6.852995217E0,7.430040005E0
7.090847167E0,1.896209059E0,2.146659046E-1,4.359199841E0,4.758604155E0
7.100889167E0,6.537670226E-1,-2.834800315E-1,3.084871695E0,3.166102592E0
7.110931167E0,-2.966894398E-1,-1.649339322E0,2.684863672E0,3.164938824E0
7.120973167E0,-1.488865412E0,-3.881337896E0,2.227056507E0,4.716066662E0
7.131016167E0,-3.322691989E0,-6.841214831E0,2.316073349E0,7.950264032E0
7.141058167E0,-4.252412142E0,-7.290892612E0,2.912039110E0,8.928611084E0
7.151100167E0,-3.303749934E0,-4.523508940E0,1.555470461E0,5.813465843E0
7.161142167E0,-1.491417137E0,-2.426728982E-1,-9.204570667E-1,1.769309589E0
7.171184167E0,-3.065809187E-1,2.611903285E0,-1.464996493E0,3.010356350E0
7.181225833E0,-1.193220833E-1,2.837436240E0,-8.024759692E-1,2.951143821E0
7.191267833E0,-7.357066137E-1,1.982379184E0,-5.567601800E-1,2.186566566E0
7.201309833E0,-1.682083145E0,8.228488380E-1,-5.658655373E-1,1.956192149E0
7.211351833E0,-2.543539101E0,9.569787025E-2,-5.759998584E-1,2.609698273E0
7.221394833E0,-2.986929956E0,2.511139387E-1,-5.916095853E-1,3.055292240E0
7.231436833E0,-2.792565584E0,1.055022476E0,-1.023814570E0,3.155897850E0
7.241478833E0,-2.176756712E0,2.036472945E0,-1.505028432E0,3.339251775E0
7.251520833E0,-1.975540573E0,2.370730782E0,-2.108803149E0,3.737669825E0
7.261562833E0,-2.053773687E0,1.949464622E0,-3.413536378E0,4.435158314E0
7.271604833E0,-2.274861004E0,1.013193834E0,-4.285015047E0,4.956098090E0
7.281646833E0,-2.519998211E0,3.311067724E-1,-3.756274724E0,4.535374569E0
7.291688833E0,-2.390292057E0,2.656822765E-1,-2.008116873E0,3.133148028E0
7.301730833E0,-2.241931824E0,1.425814301E-1,-4.907964246E-1,2.299449695E0
7.311773833E0,-2.462046749E0,2.636258107E-1,2.876888573E-2,2.476287627E0
7.321815833E0,-2.486971675E0,5.535272545E-1,-7.157342792E-2,2.548831750E0
7.331857833E0,-2.095808297E0,5.089878434E-1,-5.966479848E-1,2.237737666E0
7.341899833E0,-1.358739721E0,2.314211011E-2,-3.417837882E0,3.678087135E0
7.351941833E0,-8.138002717E-1,-7.150495702E-1,-8.315555760E0,8.385823416E0
7.361983833E0,-1.241105144E0,-1.983801811E0,-7.838434072E0,8.180272630E0
7.372025833E0,-2.360672987E0,-3.092205858E0,-2.874357898E0,4.836987424E0
7.382067833E0,-3.692626612E0,-3.200126747E0,2.525134698E-1,4.892858628E0
7.392109833E0,-4.763183386E0,-2.678283216E0,1.097659057E0,5.573685706E0
7.402152833E0,-4.997879512E0,-2.689470693E0,8.537961039E-1,5.739426802E0
7.412194833E0,-4.013518591E0,-3.361953703E0,-2.939773039E0,6.004442497E0
7.422236833E0,-3.280265177E0,-4.661624851E0,-9.068083059E0,1.071078971E1
7.432278833E0,-3.017693034E0,-5.285853129E0,-1.071481920E1,1.232290814E1
7.442320833E0,-4.051128467E0,-4.408370247E0,-7.537851520E0,9.626244108E0
7.452362833E0,-3.507593519E0,-2.449879278E0,-4.037442766E0,5.882691974E0
7.462404833E0,-4.250627279E0,-1.308235565E0,-3.245753741E0,5.505835986E0
7.472446833E0,-6.153032048E0,-2.684748482E0,-4.054975643E0,7.842863333E0
7.482488833E0,-6.880159042E0,-4.382077657E0,-4.935048841E0,9.533829246E0
7.492530833E0,-7.032984209E0,-6.448658500E0,-2.792060092E0,9.942015032E0
7.502573833E0,-5.801105679E0,-7.851101480E0,-1.145502949E0,9.828774011E0
7.512615833E0,-3.033407426E0,-7.547763720E0,-1.249445101E-1,8.135472261E0
7.522657833E0,-4.250209495E-1,-6.415181437E0,1.557514647E0,6.615213341E0
7.532699833E0,2.714444152E-1,-5.285710457E0,3.081231219E0,6.124247132E0
7.542741833E0,9.591155675E-1,-4.778947479E0,2.636159874E0,5.541442101E0
7.552783833E0,1.473432856E0,-4.356464514E0,7.459947896E-1,4.659001574E0
7.562825833E0,1.274362645E0,-4.047054420E0,2.600093079E-1,4.250912192E0
7.572867833E0,1.415617049E0,-3.548016783E0,1.791809070E0,4.219357115E0
7.582909833E0,1.559350965E0,-3.348117437E0,4.592820665E0,5.893680299E0
7.592951833E0,8.133702090E-1,-4.587408482E0,4.653493713E0,6.584898740E0
7.602994833E0,4.244224505E-1,-4.647547095E0,-2.615648134E-1,4.674210582E0
7.613036833E0,7.143622300E-1,-4.463425291E0,3.224378367E-1,4.531715445E0
7.623078833E0,1.159757802E0,-3.910812541E0,3.175930384E0,5.169722110E0
7.633120833E0,2.089426792E0,-2.314481737E0,5.139085093E0,6.011050292E0
7.643162833E0,2.027035539E0,7.428185821E-2,6.506823678E0,6.815654426E0
7.653204833E0,2.977189956E0,2.227375181E0,4.996380286E0,6.228055571E0
7.663246833E0,4.019999645E0,3.342556735E0,5.277215037E0,7.428464257E0
7.673288833E0,2.649175776E0,4.064173898E0,6.380392842E0,8.015301278E0
7.683330833E0,1.513696344E0,4.281812527E0,6.242849958E0,7.719998104E0
7.693373833E0,1.309226376E0,4.547225831E0,6.280628818E0,7.863690916E0
7.703415833E0,2.010015464E0,4.931660380E0,6.897476156E0,8.714161669E0
7.713457833E0,2.915824597E0,5.070637586E0,7.248609642E0,9.314276158E0
7.723499833E0,3.710018278E0,4.989733171E0,7.246215792E0,9.548262462E0
7.733541833E0,4.557663111E0,5.115361769E0,7.031059306E0,9.817077672E0
7.743583833E0,5.529025379E0,5.188231525E0,6.908384721E0,1.025737040E1
7.753625833E0,6.129756621E0,5.194120256E0,6.580969296E0,1.038566119E1
7.763667833E0,6.296237960E0,5.422367488E0,6.030570302E0,1.026705702E1
7.773709833E0,6.709579389E0,5.650719970E0,5.622705376E0,1.041940053E1
7.783751833E0,6.611064330E0,5.790094787E0,5.387254958E0,1.030795252E1
7.793794833E0,5.951670898E0,6.460466952E0,4.672407409E0,9.949442734E0
7.803836833E0,5.144148197E0,7.351332942E0,3.535832647E0,9.643986167E0
7.813878833E0,4.667575563E0,7.823678039E0,1.724455870E0,9.271998044E0
7.823920833E0,3.870950902E0,6.728783399E0,-5.151867691E-1,7.779858889E0
7.833962833E0,2.971599141E0,4.313067064E0,-3.119277297E0,6.096133185E0
7.844004833E0,9.078337321E-1,1.086718478E0,-6.613488586E0,6.763383060E0
7.854046833E0,-1.336668967E0,-2.783534267E0,-1.207783090E1,1.246630443E1
7.864088833E0,-5.349548019E0,-8.956087829E0,-1.896650115E1,2.164618532E1
7.874130833E0,-9.468527868E0,-1.734482266E1,-1.791697505E1,2.667421767E1
7.884172833E0,-8.511709380E0,-2.155095643E1,-1.121016490E1,2.574025479E1
7.894215833E0,-6.726234598E0,-1.691174513E1,-8.768669364E0,2.020244830E1
7.904257833E0,-3.602463716E0,-6.310679414E0,-5.100362492E0,8.877844166E0
7.914299833E0,-6.027856609E-1,4.615870973E0,-6.178021878E-1,4.695880635E0
7.924341833E0,1.485068961E0,1.449394017E1,2.986310151E0,1.487271931E1
7.934383833E0,2.774887697E0,1.841059700E1,7.193741709E0,1.995996000E1
7.944425833E0,2.983771582E0,1.214738703E1,1.129946943E1,1.685645022E1
7.954467833E0,1.879157116E0,3.195229120E0,9.368214206E0,1.007492720E1
7.964509833E0,1.053008402E0,-2.665388351E0,3.996711647E0,4.918010344E0
7.974551833E0,-1.352089682E0,-6.295011799E0,2.140172145E0,6.784958134E0
7.984593833E0,-2.754397591E0,-9.695804463E0,5.135591966E-1,1.009252562E1
7.994636833E0,-2.259685140E0,-1.474154168E1,-9.263951919E0,1.755676602E1
8.004678833E0,1.889761334E0,-1.720363111E1,-6.327639263E0,1.842756468E1
8.014720833E0,8.004119021E0,-8.456787068E0,4.993170165E0,1.266944818E1
8.024762833E0,1.074937391E1,3.628146442E0,1.015199663E1,1.522417556E1
8.034804833E0,9.915870856E0,8.442809883E0,4.117733516E0,1.365874309E1
8.044846833E0,8.548501815E0,9.577334611E0,5.497979003E0,1.396531398E1
8.054888833E0,6.327360350E0,8.105315028E0,8.275339780E0,1.319897228E1
8.064930833E0,4.159156653E0,5.518293985E0,8.129082205E0,1.066921413E1
8.074972833E0,3.001929818E0,2.479339305E0,9.516405455E0,1.028205616E1
8.085014833E0,2.093548202E0,4.388294417E-1,9.075234203E0,9.323915015E0
8.095056833E0,2.366387178E-1,-1.125387284E0,6.576279244E0,6.676072432E0
8.105098833E0,-8.447365011E-1,-2.369893461E0,2.940509788E0,3.869957698E0
8.115141833E0,-1.610931301E0,-3.254959012E0,6.376704419E-1,3.687340698E0
8.125183833E0,-1.813796355E0,-3.581195639E0,9.225941509E-1,4.118980382E0
8.135225833E0,-1.906784918E0,-3.773671360E0,1.833404993E0,4.608448559E0
8.145267833E0,-2.517958117E0,-3.667311092E0,1.940761626E0,4.853435836E0
8.155309833E0,-2.991999784E0,-3.190594617E0,1.424190529E0,4.600029932E0
8.165351833E0,-2.891801312E0,-2.591295358E0,1.024378388E0,4.015803474E0
8.175394083E0,-1.893784219E0,-1.690677967E0,4.182968708E-1,2.572893882E0
8.185436083E0,-8.672954245E-1,2.615705144E-1,-7.774465241E-1,1.193751894E0
8.195478083E0,-4.320604125E-1,1.674388794E0,-1.009586686E0,2.002378413E0
8.205520083E0,-5.808992769E-1,2.001209557E0,-8.373043976E-1,2.245743154E0
8.215563083E0,-1.104813271E0,1.435742873E0,-8.489028615E-1,2.000651401E0
8.225605083E0,-2.055363837E0,6.287265408E-1,-1.022245251E0,2.380084645E0
8.235647083E0,-2.617730328E0,5.957394737E-1,-1.340980557E0,3.000940926E0
8.245689083E0,-2.850555053E0,1.295661712E0,-1.053310996E0,3.303614299E0
8.255731083E0,-2.461237202E0,2.138719697E0,-6.509817014E-1,3.324994388E0
8.265773083E0,-2.116598218E0,2.581936889E0,-5.972153109E-1,3.391614991E0
8.275815083E0,-2.041041082E0,2.457628593E0,-1.180473903E0,3.405775335E0
8.285857083E0,-2.073703921E0,2.010187372E0,-1.888630190E0,3.450800664E0
8.295899083E0,-2.113140175E0,1.381502346E0,-2.332904559E0,3.437492373E0
8.305941083E0,-2.165625075E0,5.251138794E-1,-2.066313187E0,3.038968039E0
8.315983083E0,-2.216656942E0,-1.060334086E-1,-1.219099586E0,2.531998200E0
8.326026083E0,-2.174983105E0,-4.109370536E-1,-8.004829457E-1,2.353761610E0
8.336068083E0,-2.199803220E0,-3.892257571E-1,-1.024818683E0,2.457821033E0
8.346110083E0,-1.828673718E0,-2.009500909E-1,-2.386169770E0,3.013010899E0
8.356152083E0,-1.344156472E0,-7.504491985E-2,-5.739515787E0,5.895288783E0
8.366194083E0,-7.731299633E-1,-4.095138413E-1,-8.974146370E0,9.016691998E0
8.376236083E0,-7.736122855E-1,-1.456017509E0,-7.051967779E0,7.242148336E0
8.386278083E0,-1.934853600E0,-2.771169745E0,-2.193990503E0,4.029470751E0
8.396320083E0,-3.630587362E0,-3.364775569E0,7.224667633E-1,5.002483128E0
8.406362083E0,-4.884917738E0,-3.099694971E0,1.932654316E0,6.099646131E0
8.416404083E0,-5.597017972E0,-3.092631535E0,2.109559633E0,6.733589076E0
8.426446083E0,-4.858840910E0,-3.263696507E0,-1.284830330E0,5.992565298E0
8.436489083E0,-3.798665868E0,-4.062943059E0,-8.160826154E0,9.876054485E0
8.446531083E0,-3.593715112E0,-5.388283483E0,-1.010233856E1,1.200023465E1
8.456573083E0,-3.862883206E0,-5.120755241E0,-6.364689560E0,9.036220122E0
8.466615083E0,-2.816731249E0,-3.181442555E0,-3.579208170E0,5.555743225E0
8.476657083E0,-2.890567549E0,-1.304676949E0,-6.414637645E0,7.155776605E0
8.486699083E0,-4.353430978E0,-1.651462446E0,-6.951572841E0,8.366842562E0
8.496741083E0,-4.887468878E0,-2.539880206E0,-5.023616032E0,7.454868311E0
8.506783083E0,-5.448929050E0,-4.160699733E0,-4.017669822E0,7.946314923E0
8.516825083E0,-5.832985868E0,-6.578318753E0,-1.805690360E0,8.975439791E0
8.526867083E0,-4.038652263E0,-7.931643367E0,2.722697496E-1,8.904819449E0
8.536909083E0,-7.179724471E-1,-7.289424961E0,1.673653214E0,7.513475613E0
8.546952083E0,1.331406034E0,-5.747322405E0,1.879916670E0,6.191804546E0
8.556994083E0,1.613041123E0,-5.198186994E0,1.073233044E0,5.547511051E0
8.567036083E0,1.999112746E0,-5.168784270E0,1.065592926E-2,5.541921702E0
8.577078083E0,2.434606204E0,-4.568843572E0,-9.558583760E-1,5.264532666E0
8.587120083E0,2.907791108E0,-4.263986705E0,-6.230067214E-1,5.198554522E0
8.597162083E0,3.435487118E0,-4.280178230E0,2.595514709E0,6.071177317E0
8.607204083E0,4.059535886E0,-3.749269175E0,5.412290397E0,7.734968539E0
8.617246083E0,2.361243821E0,-4.093725725E0,6.504225175E0,8.039838794E0
8.627288083E0,-3.116129960E-1,-4.636929721E0,1.195699614E0,4.798741237E0
8.637330083E0,-6.710399169E-1,-3.819269702E0,-6.340157859E-1,3.929260954E0
8.647372083E0,-6.479491161E-1,-4.039408016E0,2.184959478E0,4.637963249E0
8.657414083E0,4.312836830E-1,-3.566650690E0,5.123379471E0,6.257477125E0
8.667457083E0,3.445810962E0,6.744938672E-2,1.043869146E1,1.099292691E1
8.677499083E0,9.039726694E-1,3.311085266E0,3.136386834E0,4.649448849E0
8.687541083E0,3.988198686E0,3.532936229E0,2.843131720E0,6.039103007E0
8.697583083E0,4.381194143E0,4.244078690E0,6.204133204E0,8.700479002E0
8.707625083E0,2.353794907E0,4.928624505E0,5.583611476E0,7.810787867E0
8.717667083E0,1.538034210E0,5.414017079E0,5.755343031E0,8.049913265E0
8.727709083E0,2.049220460E0,5.780541022E0,6.838550255E0,9.185843924E0
8.737751083E0,3.589547217E0,5.962887611E0,7.212878476E0,1.002329755E1
8.747793083E0,4.802183145E0,5.815799147E0,7.183324310E0,1.041559556E1
8.757835083E0,5.297800745E0,5.362744600E0,6.721646288E0,1.009981441E1
8.767877083E0,5.669783648E0,5.049613922E0,6.274989763E0,9.849900705E0
8.777919083E0,6.158896805E0,5.144896640E0,5.828665946E0,9.918433243E0
8.787962083E0,6.634211703E0,5.552399624E0,5.163624687E0,1.007496533E1
8.798004083E0,6.945627977E0,5.811457590E0,4.674130876E0,1.019128484E1
8.808046083E0,6.825632586E0,5.942625840E0,4.412500720E0,1.006847678E1
8.818088083E0,6.283903844E0,6.440472983E0,4.178871418E0,9.921194792E0
8.828130083E0,5.778483971E0,7.091931744E0,3.362678466E0,9.746485486E0
8.838172083E0,5.076585374E0,6.728324393E0,1.522300376E0,8.565014106E0
8.848214083E0,4.156709009E0,5.356106256E0,-4.828396797E-1,6.797002145E0
8.858256083E0,2.784493210E0,3.174348713E0,-3.301344682E0,5.359922471E0
8.868298083E0,6.994717106E-2,1.265243912E-1,-7.871928678E0,7.873256133E0
8.878340083E0,-4.234214729E0,-4.312546077E0,-1.614926236E1,1.724312335E1
8.888382083E0,-1.113526558E1,-1.113837747E1,-2.283113413E1,2.773658735E1
8.898424083E0,-1.366917519E1,-1.857930788E1,-1.746461340E1,2.893181213E1
8.908467083E0,-9.393893423E0,-2.131059377E1,-9.927119730E0,2.531668119E1
8.918509083E0,-6.112455879E0,-1.532801624E1,-8.631342827E0,1.862284290E1
8.928551083E0,-2.338371998E0,-5.299214017E0,-4.364878657E0,7.252711113E0
8.938593083E0,2.197936935E0,4.833827106E0,-7.985013244E-1,5.369768676E0
8.948635083E0,5.541432002E0,1.317528077E1,2.114946088E0,1.444882310E1
8.958677083E0,6.956037775E0,1.505983837E1,7.862167336E0,1.835752893E1
8.968719083E0,7.215878098E0,1.005958723E1,1.348743204E1,1.830778564E1
8.978761083E0,3.998242448E0,3.392470322E0,8.738034632E0,1.019058618E1
8.988803083E0,-2.310924876E-1,-2.559923877E0,2.727966715E0,3.748121715E0
8.998845083E0,-4.004696605E0,-5.979713559E0,2.248606421E0,7.539946948E0
9.008887083E0,-3.759522852E0,-8.706890607E0,2.643324468E-1,9.487561740E0
9.018929083E0,-1.012202438E0,-1.125888391E1,-5.180140733E0,1.243466439E1
9.028971083E0,3.835102208E0,-1.000551920E1,-2.943034323E0,1.111214985E1
9.039014083E0,7.888683289E0,-2.024301381E0,5.859203614E0,1.003291519E1
9.049056083E0,8.447589397E0,4.703977404E0,9.923148301E0,1.385489236E1
9.059098083E0,7.535107421E0,7.139484810E0,6.272834480E0,1.212841868E1
9.069140083E0,7.212859765E0,7.232401745E0,5.219474952E0,1.147065385E1
9.079182083E0,5.357381533E0,5.346378828E0,5.978121947E0,9.644855908E0
9.089224083E0,4.238203408E0,2.348940548E0,6.080780343E0,7.775331466E0
9.099266083E0,3.561853634E0,3.629863769E-1,7.866667353E0,8.643090631E0
9.109308083E0,2.533548256E0,-1.944982731E-1,6.842460873E0,7.299038782E0
9.119350083E0,1.445447643E0,-1.526637840E-1,3.297817934E0,3.603918457E0
9.129392083E0,6.485551069E-1,-3.743223739E-1,1.559067668E0,1.729575948E0
9.139434083E0,3.364897557E-1,-1.251694159E0,1.592789145E0,2.053519146E0
9.149476083E0,-6.184245508E-2,-2.395405447E0,1.578559215E0,2.869432164E0
9.159518083E0,-1.110662241E0,-3.919052437E0,2.065793808E0,4.567280008E0
9.169561083E0,-2.870484410E0,-5.605884106E0,2.576244625E0,6.804605332E0
9.179602958E0,-3.930017136E0,-5.129592723E0,2.986531468E0,7.118786863E0
9.189644958E0,-2.964464076E0,-2.549473148E0,1.613926830E0,4.229966951E0
9.199686958E0,-1.466561354E0,7.921556336E-1,-8.271155512E-1,1.860761373E0
9.209728958E0,-7.291148282E-1,2.517719843E0,-1.248216966E0,2.903199483E0
9.219770958E0,-7.522628586E-1,2.176968089E0,-5.758180100E-1,2.374164242E0
9.229812958E0,-1.322204855E0,1.038329260E0,-4.127252052E-1,1.731096596E0
9.239854958E0,-2.037669870E0,1.860765284E-1,-3.949408988E-1,2.083914895E0
9.249896958E0,-2.471524501E0,1.630975556E-1,-7.726142389E-1,2.594603425E0
9.259938958E0,-2.950537763E0,5.602924830E-1,-1.620068745E0,3.412363330E0
9.269980958E0,-3.169053766E0,1.086241345E0,-2.198675877E0,4.007118372E0
9.280022958E0,-2.750600702E0,1.382025087E0,-2.469169827E0,3.946213020E0
9.290064958E0,-2.483392594E0,1.440392579E0,-2.751063509E0,3.976219309E0
9.300107958E0,-2.477968425E0,1.078137104E0,-3.087749987E0,4.103280043E0
9.310149958E0,-2.563663756E0,5.269031274E-1,-3.048507276E0,4.017884440E0
9.320191958E0,-2.673675025E0,3.231943202E-1,-2.292055472E0,3.536454580E0
9.330233958E0,-2.620917352E0,5.300541919E-1,-1.186404880E0,2.925358397E0
9.340275958E0,-2.439709800E0,7.599883461E-1,-3.837815608E-1,2.583999706E0
9.350317958E0,-2.483768570E0,5.911944330E-1,-3.065338486E-1,2.571493762E0
9.360359958E0,-2.249510839E0,5.177037030E-1,-7.625766161E-1,2.431016091E0
9.370401958E0,-1.639662472E0,4.311947322E-1,-2.281490285E0,2.842467210E0
9.380443958E0,-9.701130838E-1,-1.805930096E-1,-5.471113386E0,5.559389797E0
9.390485958E0,-2.479891866E-1,-7.564700764E-1,-7.519592419E0,7.561614627E0
9.400527958E0,-9.508880965E-1,-1.325853226E0,-5.318792249E0,5.563418548E0
9.410569958E0,-2.831093180E0,-2.418423012E0,-1.519265817E0,4.021445894E0
9.420611958E0,-4.167138103E0,-2.562083838E0,3.666845946E-1,4.905483784E0
9.430653958E0,-5.039855504E0,-2.608167499E0,9.162025595E-1,5.748226538E0
9.440696958E0,-5.266919260E0,-2.992312610E0,1.268421289E0,6.188963226E0
9.450738958E0,-5.026557181E0,-3.948673262E0,-1.057865392E0,6.478995047E0
9.460780958E0,-4.663810833E0,-4.875611894E0,-7.562427952E0,1.013474417E1
9.470822958E0,-4.491580219E0,-5.363437495E0,-1.089181559E1,1.294497591E1
9.480864958E0,-4.530248733E0,-4.975226229E0,-9.891897272E0,1.196351375E1
9.490906958E0,-3.432715245E0,-3.210941758E0,-6.070897964E0,7.677856668E0
9.500948958E0,-2.203035707E0,-1.332127288E0,-3.690239194E0,4.499532725E0
9.510990958E0,-3.915762209E0,-1.954556962E0,-3.632894965E0,5.687830203E0
9.521032958E0,-4.877296185E0,-3.051767684E0,-5.064948245E0,7.665181328E0
9.531074958E0,-5.343556961E0,-4.866337625E0,-3.837084414E0,8.182790458E0
9.541116958E0,-5.385180366E0,-6.799093244E0,-6.313929442E-1,8.696349439E0
9.551158958E0,-3.824052724E0,-7.130294741E0,4.074888409E-1,8.101267153E0
9.561200958E0,-1.401198985E0,-5.583191646E0,7.399832672E-1,5.803702507E0
9.571243958E0,1.847500876E-2,-4.499304975E0,1.777186353E0,4.837610766E0
9.581285958E0,1.185945216E0,-4.297203568E0,1.616824125E0,4.741997976E0
9.591327958E0,1.451481823E0,-3.714867082E0,1.272817225E0,4.186538022E0
9.601369958E0,1.385024417E0,-3.699331614E0,1.109679909E0,4.103015541E0
9.611411958E0,2.168729654E0,-3.683707854E0,2.148706741E0,4.784352885E0
9.621453958E0,1.624859076E0,-4.482345126E0,5.530476658E0,7.301900911E0
9.631495958E0,1.091499453E0,-5.860722721E0,1.863050376E0,6.245830495E0
9.641537958E0,1.502956909E0,-5.714676231E0,-1.810920256E0,6.180277992E0
9.651579958E0,1.420655010E0,-5.270391337E0,1.305573328E0,5.612468905E0
9.661621958E0,1.795162156E0,-4.292138709E0,3.197915038E0,5.645504624E0
9.671663958E0,2.272440549E0,-2.535774291E0,4.227441022E0,5.428203653E0
9.681705958E0,2.866967018E0,-6.755358410E-1,5.340665513E0,6.099061951E0
9.691747958E0,3.302296316E0,1.372195918E0,6.065520279E0,7.041208622E0
9.701789958E0,3.568812990E0,3.075565267E0,5.348173338E0,7.127305657E0
9.711831958E0,2.422159529E0,4.016088150E0,5.851206962E0,7.498829490E0
9.721873958E0,1.786361219E0,4.114620166E0,6.172726640E0,7.630448197E0
9.731916958E0,1.864036363E0,4.096897255E0,6.031592395E0,7.525908949E0
9.741958958E0,2.187780760E0,4.145302261E0,6.449458984E0,7.972793530E0
9.752000958E0,3.155332398E0,4.312663021E0,6.829395270E0,8.671552608E0
9.762042958E0,4.205477711E0,4.416131256E0,7.000122857E0,9.283855776E0
9.772084958E0,5.007396441E0,4.556787783E0,6.875405840E0,9.649328447E0
9.782126958E0,5.773219138E0,4.857503067E0,6.638352116E0,1.004953303E1
9.792168958E0,6.221055046E0,5.260014868E0,6.618168697E0,1.049616307E1
9.802210958E0,6.289214870E0,5.800117500E0,6.168989099E0,1.054760699E1
9.812252958E0,6.317027736E0,6.326706047E0,5.443367178E0,1.046720092E1
9.822294958E0,5.996024952E0,6.643225186E0,5.042556918E0,1.027191006E1
9.832336958E0,5.408217811E0,6.715061738E0,4.707345692E0,9.823440207E0
9.842378958E0,4.702729023E0,7.583884310E0,4.045002924E0,9.797602265E0
9.852420958E0,3.924597936E0,8.076509305E0,2.783453868E0,9.401068394E0
9.862462958E0,3.413321493E0,7.395139112E0,8.388032582E-1,8.187944614E0
9.872504958E0,2.527305769E0,5.336215782E0,-1.447369769E0,6.079255922E0
9.882547958E0,4.647951722E-1,2.435354210E0,-5.208428392E0,5.768423615E0
9.892589958E0,-1.771833373E0,-1.367698240E0,-1.274049117E1,1.293561391E1
9.902631958E0,-7.583724096E0,-8.215440318E0,-2.397324738E1,2.645227628E1
9.912673958E0,-1.223141503E1,-1.901484008E1,-2.285553105E1,3.214882512E1
9.922715958E0,-7.989678152E0,-2.610919315E1,-1.110831226E1,2.947744095E1
9.932757958E0,-5.186073318E0,-2.093338287E1,-8.732506675E0,2.326711301E1
9.942799958E0,-3.595723923E0,-7.160286280E0,-4.889835246E0,9.386661754E0
9.952841958E0,-6.793013017E-1,6.400714256E0,7.615325958E-2,6.437110575E0
9.962883958E0,2.908077329E0,1.805575755E1,5.190289160E0,1.901069162E1
9.972925958E0,5.057929832E0,2.179382638E1,1.229803704E1,2.553028079E1
9.982967958E0,4.028232817E0,1.544327539E1,1.583176206E1,2.248034929E1
9.993009958E0,2.489643560E0,6.180121613E0,1.089465500E1,1.277050256E1
1.000305196E1,6.559869911E-1,-3.723740816E-2,5.318520938E0,5.358952372E0
1.001309396E1,-2.076684832E0,-4.356981992E0,3.484863346E0,5.953165923E0
1.002313596E1,-2.979833483E0,-1.050525265E1,-4.466724290E0,1.179793909E1
1.003317796E1,-2.272781295E0,-2.130099498E1,-1.753863915E1,2.768576864E1
1.004321996E1,3.032483566E0,-2.618857729E1,-6.846481419E0,2.723805876E1
1.005326296E1,7.345430762E0,-1.215489954E1,5.926091083E0,1.538881059E1
1.006330496E1,9.198443223E0,3.919410287E0,1.093782616E1,1.481921644E1
1.007334696E1,8.001800600E0,1.015134876E1,5.442045708E0,1.402478363E1
1.008338896E1,8.143554064E0,1.218109272E1,4.894638734E0,1.544842973E1
1.009343096E1,7.425380327E0,1.055170176E1,7.038990469E0,1.469768927E1
1.010347296E1,4.420067602E0,7.232584178E0,7.889362736E0,1.157969412E1
1.011351496E1,1.802559907E0,3.572185079E0,9.294539874E0,1.011919957E1
1.012355696E1,1.299928133E0,1.466834857E0,9.248341023E0,9.453741552E0
1.013359896E1,9.778708041E-2,1.310782027E-1,7.484733074E0,7.486519418E0
1.014364096E1,-2.261375205E-1,-9.247523582E-1,4.692888744E0,4.788476779E0
1.015368296E1,-1.130226732E0,-2.398327886E0,1.454375610E0,3.024003560E0
1.016372496E1,-2.756873302E0,-4.728779538E0,-7.950552678E-1,5.531167978E0
1.017376696E1,-2.646723746E0,-6.622082239E0,-1.308443141E-1,7.132618033E0
1.018380946E1,-2.669852408E0,-7.573537077E0,1.396759486E0,8.150920978E0
1.019385146E1,-3.428859884E0,-6.346001274E0,1.860381122E0,7.449149629E0
1.020389346E1,-2.470380201E0,-2.460858595E0,5.286561227E-1,3.526766317E0
1.021393546E1,-1.040133126E0,1.169107500E0,-8.849749196E-1,1.797740213E0
1.022397846E1,-5.875077635E-1,2.275101909E0,-8.344959068E-1,2.493519097E0
1.023402046E1,-5.666780810E-1,2.303416466E0,-2.106488675E-1,2.381433268E0
1.024406246E1,-8.679279470E-1,1.519768531E0,5.569648325E-1,1.836628742E0
1.025410446E1,-1.251720179E0,4.737957913E-1,8.094897044E-1,1.564148152E0
1.026414646E1,-1.887802079E0,3.186364156E-1,4.094289470E-1,1.957794145E0
1.027418846E1,-2.480777135E0,8.720806396E-1,-1.357373372E-1,2.633097883E0
1.028423046E1,-2.684384785E0,1.585926853E0,-2.669798467E-1,3.129275299E0
1.029427246E1,-2.804660257E0,2.289605343E0,-4.158943230E-1,3.644362752E0
1.030431446E1,-2.317813042E0,2.758096540E0,-1.093520544E0,3.764988845E0
1.031435646E1,-1.940970372E0,2.467524421E0,-1.552874882E0,3.502493847E0
1.032439846E1,-1.825906085E0,1.828767566E0,-1.779781932E0,3.137825293E0
1.033444046E1,-1.764325402E0,1.184554675E0,-2.301681159E0,3.132690546E0
1.034448246E1,-1.628109836E0,6.414278626E-1,-2.566148238E0,3.106008390E0
1.035452446E1,-1.402891754E0,2.804055655E-1,-2.361641285E0,2.761174046E0
1.036456646E1,-1.452553326E0,-2.361474055E-1,-1.951485420E0,2.444171047E0
1.037460846E1,-1.608183110E0,-1.893825442E-1,-1.465984234E0,2.184314180E0
1.038465046E1,-1.380561237E0,1.369920766E-1,-1.415907948E0,1.982299542E0
1.039469246E1,-6.387818514E-1,3.237153071E-1,-2.535001874E0,2.634211145E0
1.040473446E1,8.543703005E-2,4.503467023E-1,-5.391814032E0,5.411263272E0
1.041477746E1,-1.759048583E-1,-5.353324735E-1,-6.922254902E0,6.945152000E0
1.042481946E1,-1.575432855E0,-2.088190983E0,-4.185559756E0,4.935731023E0
1.043486146E1,-3.279356520E0,-3.089770492E0,-5.937802179E-1,4.544605134E0
1.044490346E1,-4.570887759E0,-3.058526480E0,1.478276543E0,5.694989084E0
1.045494546E1,-5.536512154E0,-2.744084272E0,2.145802429E0,6.541210392E0
1.046498746E1,-5.330489604E0,-2.486930745E0,1.482973611E0,6.066148257E0
1.047502946E1,-4.884846987E0,-2.568608746E0,-1.921069081E0,5.843799054E0
1.048507146E1,-4.909190699E0,-3.714823228E0,-6.807459440E0,9.178320596E0
1.049511346E1,-5.387362547E0,-4.891019892E0,-8.290623232E0,1.103087414E1
1.050515546E1,-5.786796373E0,-4.229181154E0,-6.126293315E0,9.428915912E0
1.051519746E1,-3.490585138E0,-2.432714192E0,-3.813953998E0,5.713889047E0
1.052523946E1,-2.975680790E0,-1.658611252E0,-4.995219029E0,6.046311322E0
1.053528146E1,-5.181790817E0,-2.723951139E0,-5.120538894E0,7.777582172E0
1.054532346E1,-5.337699805E0,-3.368461654E0,-4.735053016E0,7.890392905E0
1.055536546E1,-5.645584361E0,-4.227139891E0,-4.124095579E0,8.170036645E0
1.056540746E1,-6.173749318E0,-5.639563483E0,-2.407578766E0,8.701510928E0
1.057544946E1,-4.651574657E0,-6.416432156E0,-2.312398959E0,8.255600363E0
1.058549146E1,-9.870847003E-1,-5.499550735E0,-1.447470049E0,5.771876994E0
1.059553346E1,1.196995138E0,-4.484839548E0,1.154349128E0,4.783210746E0
1.060557546E1,1.132698058E0,-4.817002328E0,2.708492271E0,5.641138777E0
1.061561846E1,1.307175611E0,-5.040604532E0,2.181980907E0,5.646011230E0
1.062566046E1,1.487948422E0,-4.759268090E0,1.238862444E0,5.138034976E0
1.063570246E1,1.804506153E0,-5.032202668E0,4.616061008E-1,5.365853738E0
1.064574446E1,2.819684385E0,-4.407134145E0,3.372483369E0,6.224716498E0
1.065578646E1,1.120257156E0,-5.463291566E0,9.518604008E0,1.103206024E1
1.066582846E1,-1.294473558E0,-6.102709156E0,1.955425712E0,6.537768010E0
1.067587046E1,-1.219718514E0,-5.678688372E0,-2.801820849E0,6.448675442E0
1.068591246E1,-5.317890608E-1,-5.447474847E0,1.357923449E0,5.639302963E0
1.069595446E1,4.494444770E-1,-4.557623350E0,4.282963843E0,6.270383579E0
1.070599646E1,2.040315443E0,-2.442507693E0,5.385372155E0,6.255474737E0
1.071603846E1,3.038624897E0,3.806537390E-2,5.300755928E0,6.110049398E0
1.072608046E1,4.119734141E0,2.760104474E0,5.128629102E0,7.133948595E0
1.073612246E1,3.737244376E0,4.013711257E0,5.719086785E0,7.923687730E0
1.074616446E1,3.129246215E0,4.681838676E0,5.771240441E0,8.063436704E0
1.075620646E1,2.700303830E0,4.982388484E0,5.852018555E0,8.146284856E0
1.076624846E1,2.580626236E0,4.939585696E0,6.389194071E0,8.478262764E0
1.077629046E1,3.097953671E0,4.804493964E0,6.655486797E0,8.773595825E0
1.078633246E1,3.914583702E0,4.604495800E0,6.752718392E0,9.062259807E0
1.079637446E1,4.789170751E0,4.480100965E0,6.635531420E0,9.329401822E0
1.080641646E1,5.356532518E0,4.569131255E0,6.425522822E0,9.531880432E0
1.081645846E1,5.928310102E0,5.004347702E0,6.283137274E0,9.983294576E0
1.082650046E1,6.550917531E0,5.351310954E0,6.099448164E0,1.042853381E1
1.083654346E1,6.682654715E0,5.405777768E0,5.637005911E0,1.027891740E1
1.084658546E1,6.805821050E0,5.536008709E0,4.992675490E0,1.009422613E1
1.085662746E1,6.791421697E0,5.772798139E0,4.596902898E0,1.002896422E1
1.086666946E1,6.388291261E0,6.039863282E0,4.129737850E0,9.713132780E0
1.087671146E1,5.857534819E0,6.484872646E0,3.764807566E0,9.515149152E0
1.088675346E1,5.462520318E0,6.866431534E0,2.167437712E0,9.037964177E0
1.089679546E1,4.292403004E0,6.209885110E0,-6.484883755E-2,7.549278244E0
1.090683746E1,2.960019023E0,4.422789481E0,-2.917439598E0,6.069121289E0
1.091687946E1,3.501482302E-1,1.667260453E0,-6.597712798E0,6.814115890E0
1.092692146E1,-2.776916388E0,-1.547473224E0,-1.164354883E1,1.206972110E1
1.093696346E1,-8.101093923E0,-7.377827260E0,-1.999664255E1,2.280188087E1
1.094700546E1,-1.276774153E1,-1.541971345E1,-1.794761797E1,2.688679560E1
1.095704746E1,-1.090006835E1,-2.027406019E1,-8.456589432E0,2.452270196E1
1.096708946E1,-7.329239237E0,-1.743280338E1,-7.644137528E0,2.039738267E1
1.097713146E1,-4.706002294E0,-7.986879090E0,-4.574856849E0,1.033760177E1
1.098717346E1,-1.026537618E0,2.899106823E0,-8.744320974E-1,3.197378825E0
1.099721546E1,1.278769399E0,1.248405334E1,2.330310150E0,1.276390161E1
1.100725746E1,2.826782028E0,1.824321460E1,6.633610024E0,1.961658374E1
1.101729946E1,4.045689095E0,1.578755828E1,1.190572629E1,2.018318397E1
1.102734146E1,3.493676561E0,7.684966881E0,1.135073431E1,1.414580013E1
1.103738346E1,1.570775840E0,1.037893642E0,7.695419948E0,7.922376419E0
1.104742546E1,-8.945285390E-1,-2.772175466E0,5.131146913E0,5.900322598E0
1.105746746E1,-2.833911538E0,-6.297775193E0,1.433680852E0,7.053259373E0
1.106750946E1,-2.589483306E0,-1.236572675E1,-9.597412781E0,1.586590539E1
1.107755246E1,-4.016322331E-1,-2.106233970E1,-1.446694825E1,2.555535274E1
1.108759446E1,5.100792262E0,-1.961945270E1,-5.539615272E0,2.101495523E1
1.109763646E1,9.782815125E0,-5.278474528E0,6.857108733E0,1.306084627E1
1.110767846E1,1.010729115E1,5.641181992E0,1.056850081E1,1.567397455E1
1.111772046E1,8.387613337E0,1.002650018E1,4.882724447E0,1.395434561E1
1.112776246E1,7.693202684E0,1.137941373E1,4.681323244E0,1.451176115E1
1.113780446E1,6.126182218E0,9.856499398E0,5.128922632E0,1.268804699E1
1.114784646E1,3.415866786E0,6.092524475E0,6.112993823E0,9.282009150E0
1.115788846E1,2.095216559E0,2.944984662E0,8.506496587E0,9.242475386E0
1.116793046E1,2.510352936E0,7.959738654E-1,7.413781790E0,7.867630309E0
1.117797246E1,1.929905978E0,-3.491477716E-1,6.023152524E0,6.334414541E0
1.118801354E1,4.785620029E-1,-1.327505064E0,5.270272053E0,5.455919611E0
1.119805554E1,-1.051185094E0,-3.106163161E0,4.089615718E0,5.241964937E0
1.120809754E1,-3.122177808E0,-5.993121225E0,1.790686989E0,6.990855182E0
1.121813954E1,-5.651979461E0,-8.973086269E0,-1.555529664E-1,1.060591089E1
1.122818154E1,-4.833549364E0,-7.706143742E0,5.372152770E-1,9.112433872E0
1.123822354E1,-2.573423928E0,-3.776782079E0,3.263775444E-1,4.581824515E0
1.124826554E1,-1.266725011E0,1.768537152E-1,-6.768526340E-1,1.447065644E0
1.125830754E1,-3.083717747E-1,2.406984104E0,-1.481254091E0,2.843022918E0
1.126834954E1,-1.825572355E-1,2.675565430E0,-1.596569955E0,3.121059617E0
1.127839154E1,-7.389519645E-1,2.236668745E0,-1.215879378E0,2.650867734E0
1.128843354E1,-1.448114412E0,1.263277493E0,-5.333362341E-1,1.994330192E0
1.129847554E1,-1.822848283E0,6.858257711E-2,-1.837627852E-1,1.833370720E0
1.130851754E1,-2.337087365E0,-3.379784203E-1,2.648027822E-1,2.376200176E0
1.131855954E1,-2.735112889E0,3.420211852E-1,3.770530236E-1,2.782083750E0
1.132860154E1,-2.436350283E0,1.756835704E0,1.058136995E-1,3.005573311E0
1.133864354E1,-1.933966285E0,2.646044008E0,-3.465557009E-1,3.295735932E0
1.134868554E1,-1.860708274E0,2.539001369E0,-1.132702151E0,3.345411394E0
1.135872854E1,-2.086762362E0,1.978937513E0,-2.949327389E0,4.119381371E0
1.136876954E1,-2.143498773E0,1.169752448E0,-4.324739276E0,4.966515638E0
1.137881254E1,-2.015680246E0,4.540947676E-1,-3.773105934E0,4.301801635E0
1.138885454E1,-1.881964511E0,1.197252488E-1,-2.332465580E0,2.999419983E0
1.139889654E1,-1.957893384E0,-3.311652446E-1,-1.110242557E0,2.275006694E0
1.140893854E1,-1.846819090E0,-2.421653599E-1,-5.021426542E-1,1.929127279E0
1.141898054E1,-1.596431960E0,-2.380693853E-2,-4.889969440E-1,1.669814297E0
1.142902254E1,-1.109645776E0,1.699083924E-1,-1.345317729E0,1.752159354E0
1.143906454E1,-2.792957640E-1,3.902805948E-1,-4.190591869E0,4.217983556E0
1.144910654E1,-2.698844511E-1,-1.236387902E-1,-6.855883157E0,6.862307048E0
1.145914854E1,-1.610684841E0,-1.261461933E0,-4.960352667E0,5.365695709E0
1.146919054E1,-3.376971984E0,-2.369013455E0,-8.265249825E-1,4.207054561E0
1.147923254E1,-4.524338075E0,-2.627653345E0,1.505205164E0,5.444248314E0
1.148927454E1,-5.439018604E0,-2.703508689E0,2.014974487E0,6.399375344E0
1.149931654E1,-5.482010257E0,-2.818950852E0,1.917938774E0,6.455804327E0
1.150935854E1,-4.873528824E0,-2.999015273E0,-1.868031181E0,6.019544526E0
1.151940054E1,-3.732075437E0,-3.158550121E0,-1.028460680E1,1.138762324E1
1.152944254E1,-3.799613702E0,-3.607884085E0,-1.182808696E1,1.293667395E1
1.153948454E1,-4.392736546E0,-3.558295603E0,-5.646194226E0,7.989812964E0
1.154952654E1,-2.731465689E0,-2.428375558E0,-1.484281195E0,3.944743759E0
1.155956854E1,-2.546644265E0,-9.984126574E-1,-5.377149800E0,6.032906830E0
1.156961054E1,-4.448186862E0,-1.949695587E0,-7.808831958E0,9.195952142E0
1.157965254E1,-4.970527407E0,-3.110515244E0,-5.993227059E0,8.384522549E0
1.158969454E1,-5.744142104E0,-4.173333228E0,-4.229864693E0,8.264601265E0
1.159973654E1,-6.615532188E0,-5.681744127E0,-2.046723114E0,8.957486141E0
1.160977854E1,-6.218882806E0,-7.365273873E0,-5.452464277E-1,9.655001618E0
1.161982054E1,-3.118936404E0,-7.208148079E0,8.562493032E-1,7.900526937E0
1.162986254E1,2.467500520E-1,-5.734719901E0,1.889927688E0,6.043155186E0
1.163990454E1,1.317677064E0,-5.004982125E0,1.868964250E0,5.502649024E0
1.164994654E1,2.342826115E0,-4.345771126E0,1.002425601E0,5.037798921E0
1.165998854E1,2.283723921E0,-4.393031246E0,3.521426424E-1,4.963680380E0
1.167003054E1,2.976868359E0,-5.227217835E0,-3.990362886E-1,6.028663325E0
1.168007254E1,4.023774315E0,-4.967131929E0,3.244997696E0,7.168902941E0
1.169011454E1,2.560708573E0,-6.116757676E0,8.333463442E0,1.064981529E1
1.170015754E1,1.680586111E0,-6.753462158E0,1.622687859E0,7.146099403E0
1.171019954E1,8.810932454E-1,-6.302773978E0,-2.351920874E0,6.784748848E0
1.172024154E1,-6.548556279E-2,-6.190467092E0,6.066955478E-1,6.220470293E0
1.173028354E1,3.209712819E-1,-5.525876654E0,3.643452990E0,6.626694881E0
1.174032554E1,1.934697771E0,-3.979374653E0,5.560009775E0,7.105785445E0
1.175036754E1,3.573454802E0,-6.124964243E-1,5.299448490E0,6.420972309E0
1.176040954E1,3.963057705E0,2.359704103E0,5.535969533E0,7.205622006E0
1.177045154E1,3.626950686E0,4.129742235E0,6.056404470E0,8.178604851E0
1.178049354E1,3.414576305E0,5.243688272E0,5.961531057E0,8.642652983E0
1.179053554E1,3.414395626E0,5.656173084E0,6.054148614E0,8.961200081E0
1.180057754E1,3.371806262E0,6.250400468E0,6.293020238E0,9.488871755E0
1.181061954E1,3.489075680E0,6.283713225E0,7.130681827E0,1.012449131E1
1.182066154E1,4.310260400E0,5.752881353E0,6.931294112E0,9.985831295E0
1.183070354E1,4.824763045E0,5.315359933E0,6.504857844E0,9.687340462E0
1.184074554E1,4.808496968E0,5.300496311E0,6.351744994E0,9.568780941E0
1.185078754E1,5.068650702E0,5.607765740E0,6.021572607E0,9.664243022E0
1.186082954E1,5.312448605E0,6.187427124E0,5.720238102E0,9.961299541E0
1.187087154E1,5.628961312E0,6.582418821E0,5.429418061E0,1.022213400E1
1.188091354E1,5.840580817E0,6.798053609E0,5.023931782E0,1.027452226E1
1.189095554E1,6.013192377E0,6.931800481E0,4.657566299E0,1.029083399E1
1.190099754E1,5.882353910E0,7.124138793E0,4.380879270E0,1.022484935E1
1.191103954E1,5.707833234E0,7.431728064E0,4.027765332E0,1.019964881E1
1.192108154E1,5.210449775E0,7.734371760E0,3.021736969E0,9.803070319E0
1.193112354E1,3.693051705E0,6.451421310E0,1.008133653E0,7.501719888E0
1.194116554E1,2.665564937E0,4.323402017E0,-1.351228387E0,5.255745389E0
1.195120754E1,7.320534195E-1,1.564085748E0,-5.453222076E0,5.720130894E0
1.196124954E1,-2.317041502E0,-2.455348179E0,-1.287685058E1,1.331205081E1
1.197129154E1,-1.031319852E1,-9.963442633E0,-2.399126849E1,2.795019171E1
1.198133354E1,-1.723965581E1,-2.183758928E1,-2.142740009E1,3.511722530E1
1.199137554E1,-1.159084437E1,-2.931226280E1,-9.687886748E0,3.297592415E1
1.200141754E1,-6.818200775E0,-2.191508828E1,-8.061058037E0,2.432569861E1
1.201145954E1,-5.418660938E0,-6.680756124E0,-5.889492191E0,1.042499434E1
1.202150154E1,1.893357664E-2,5.732941763E0,-2.476858331E0,6.245142667E0
1.203154354E1,5.772980572E0,1.631507770E1,1.767628787E0,1.739636676E1
1.204158554E1,9.337849030E0,2.140641560E1,7.131051371E0,2.441888505E1
1.205162754E1,1.039883917E1,1.753563134E1,1.333424551E1,2.436054856E1
1.206166954E1,7.864377583E0,8.979598314E0,1.369918544E1,1.817001108E1
1.207171154E1,3.357279439E0,9.193805212E-1,8.103183718E0,8.819193395E0
1.208175354E1,-1.218540812E0,-4.315520555E0,3.335295662E0,5.588627428E0
1.209179554E1,-5.581512326E0,-7.789663031E0,1.171922642E0,9.654301252E0
1.210183754E1,-6.139150758E0,-1.144260108E1,-3.876677080E0,1.355178648E1
1.211187954E1,-3.004312851E0,-1.634959147E1,-1.032015202E1,1.956631225E1
1.212192154E1,3.893151610E0,-1.548003800E1,-5.450075104E0,1.686687655E1
1.213196354E1,8.887581266E0,-5.628294729E0,3.140084614E0,1.097847593E1
1.214200554E1,9.443510556E0,3.358679262E0,9.411314617E0,1.374894399E1
1.215204754E1,6.709515654E0,7.082206070E0,7.745430014E0,1.245660183E1
1.216208954E1,6.036714556E0,8.278220703E0,6.362570529E0,1.206039653E1
1.217213254E1,5.389215530E0,7.192055372E0,5.624537308E0,1.060210943E1
1.218217471E1,3.988438714E0,4.589918692E0,4.622050896E0,7.637954664E0
1.219221671E1,2.997782973E0,2.135394385E0,6.876730235E0,7.799745551E0
1.220225871E1,2.411901905E0,1.073983242E0,7.404925597E0,7.861528725E0
1.221230071E1,1.602390273E0,7.444996566E-1,5.286181158E0,5.573656391E0
1.222234271E1,-6.862654086E-2,1.849538630E-1,3.394776464E0,3.400503605E0
1.223238471E1,-9.060998864E-1,-9.885542518E-1,2.318566602E0,2.678433796E0
1.224242671E1,-1.218381840E0,-2.617705477E0,1.672421206E0,3.336739271E0
1.225246871E1,-2.294382810E0,-5.051310199E0,1.069145256E0,5.650044140E0
1.226251071E1,-3.677220076E0,-7.055089608E0,1.550311462E0,8.105535300E0
1.227255271E1,-3.792910161E0,-5.822034034E0,2.284115977E0,7.314330699E0
1.228259471E1,-2.545185677E0,-2.359157973E0,9.503117073E-1,3.598150749E0
1.229263671E1,-8.524209850E-1,1.083441113E0,-1.401272952E0,1.965714137E0
1.230267871E1,-2.711904267E-1,2.157083462E0,-1.870445935E0,2.867947229E0
1.231272071E1,-2.959647140E-1,2.065872161E0,-1.239920790E0,2.427514462E0
1.232276271E1,-9.115948804E-1,1.330734481E0,-5.190988852E-1,1.694497902E0
1.233280471E1,-1.805273454E0,4.402801359E-1,5.640808940E-2,1.859042956E0
1.234284671E1,-2.462999260E0,5.469134688E-2,3.436408639E-1,2.487457647E0
1.235288871E1,-2.779017293E0,3.332263881E-1,5.689123752E-1,2.856157949E0
1.236293071E1,-2.876943537E0,1.105554698E0,7.513472577E-1,3.172314298E0
1.237297271E1,-2.169252834E0,2.115346622E0,5.164890902E-1,3.073615163E0
1.238301471E1,-1.800395560E0,2.351298730E0,1.544336631E-1,2.965447630E0
1.239305671E1,-1.907619900E0,2.261022398E0,-1.158418790E0,3.176974986E0
1.240309871E1,-2.223236814E0,2.021847305E0,-4.314435897E0,5.257851801E0
1.241314071E1,-2.684884722E0,1.482115971E0,-5.962682374E0,6.705136450E0
1.242318271E1,-3.099900209E0,9.682071108E-1,-4.364674297E0,5.440329772E0
1.243322471E1,-3.289582423E0,5.039352643E-1,-2.235785377E0,4.009244258E0
1.244326671E1,-3.265669650E0,2.495878154E-1,-9.825072075E-1,3.419387774E0
1.245330871E1,-3.105190769E0,7.713588417E-2,-4.416394673E-1,3.137388258E0
1.246335071E1,-2.620516818E0,2.273578709E-1,-5.054935473E-1,2.678492808E0
1.247339271E1,-1.964812101E0,4.216848207E-1,-1.529449474E0,2.525375294E0
1.248343471E1,-1.043682970E0,-4.942008197E-2,-4.485921576E0,4.605997055E0
1.249347671E1,-8.405625392E-1,-1.364129099E0,-7.041041672E0,7.221056807E0
1.250351871E1,-1.673270514E0,-2.565469376E0,-4.968824698E0,5.837010040E0
1.251356071E1,-3.282683585E0,-3.274149574E0,-7.299180163E-1,4.693489881E0
1.252360271E1,-4.505821112E0,-3.252931783E0,1.378191653E0,5.725679114E0
1.253364471E1,-5.178696470E0,-2.956676170E0,2.518705684E0,6.473384696E0
1.254368671E1,-5.093002017E0,-3.355714139E0,2.707579228E0,6.673115629E0
1.255372871E1,-3.812768183E0,-3.750491828E0,-1.804356610E0,5.644385967E0
1.256377071E1,-2.168924659E0,-3.617013928E0,-1.139874229E1,1.215394379E1
1.257381271E1,-3.114436972E0,-4.247913294E0,-1.087238763E1,1.208111327E1
1.258385471E1,-3.271622992E0,-4.353305848E0,-4.144229881E0,6.843203206E0
1.259389671E1,-2.277539029E0,-2.237801936E0,-3.897659229E0,5.038520517E0
1.260393871E1,-3.555895029E0,-1.563222114E0,-7.227044526E0,8.204768456E0
1.261398071E1,-4.830044543E0,-2.849048810E0,-6.247164034E0,8.394847698E0
1.262402271E1,-5.387896398E0,-4.215216833E0,-4.663814049E0,8.279410729E0
1.263406471E1,-5.915086039E0,-5.368476625E0,-4.159566543E0,9.006152228E0
1.264410671E1,-5.977367072E0,-6.464354181E0,-2.772625701E0,9.230614572E0
1.265414871E1,-4.457056503E0,-6.830403330E0,-1.332652953E0,8.264122834E0
1.266419071E1,-1.051930907E0,-5.739259095E0,9.440335518E-1,5.910740473E0
1.267423271E1,1.160783989E0,-4.432036852E0,1.915564805E0,4.965859306E0
1.268427471E1,1.982236804E0,-3.958067399E0,1.370183891E0,4.633892983E0
1.269431671E1,2.402530280E0,-3.565980599E0,6.639618623E-1,4.350771740E0
1.270435871E1,2.754039742E0,-3.924400300E0,2.037754655E-2,4.794378777E0
1.271440071E1,3.440722715E0,-3.875952610E0,8.663690063E-1,5.254728984E0
1.272444271E1,3.272760276E0,-4.075696421E0,6.415655061E0,8.275439021E0
1.273448471E1,1.883115243E0,-5.093874421E0,5.207843671E0,7.524314941E0
1.274452671E1,1.073137881E0,-6.233376884E0,-3.044284125E-1,6.332399936E0
1.275456871E1,-1.887316760E-1,-6.513291283E0,-1.187157855E0,6.623286704E0
1.276461071E1,-3.830437884E-2,-5.873778968E0,1.037045796E0,5.964747319E0
1.277465271E1,1.221058842E0,-4.654834480E0,4.037411191E0,6.281652478E0
1.278469471E1,2.597765302E0,-2.948046849E0,5.745185248E0,6.960353318E0
1.279473671E1,3.751586426E0,3.525110900E-1,5.655025860E0,6.795438342E0
1.280477871E1,3.645941858E0,2.643990465E0,5.694112158E0,7.259923614E0
1.281482071E1,3.478726108E0,4.319612437E0,5.148304982E0,7.567405839E0
1.282486271E1,2.599520636E0,4.824232410E0,6.211056308E0,8.282991388E0
1.283490471E1,2.537684577E0,5.042213686E0,6.280128297E0,8.444156162E0
1.284494671E1,2.700899954E0,5.318213375E0,6.385712639E0,8.738167998E0
1.285498871E1,3.212552081E0,5.652245509E0,6.737442541E0,9.362772141E0
1.286503071E1,3.834894339E0,5.658224872E0,6.663228511E0,9.545707804E0
1.287507271E1,4.236390186E0,5.648427277E0,6.333105240E0,9.484722162E0
1.288511471E1,4.575688908E0,5.568779429E0,6.154310249E0,9.477540185E0
1.289515671E1,4.967488609E0,5.655071468E0,5.958920860E0,9.600235112E0
1.290519871E1,5.171737699E0,6.341011845E0,5.545570661E0,9.884768889E0
1.291524071E1,5.544071435E0,6.783280619E0,5.290546689E0,1.023423218E1
1.292528271E1,5.802249395E0,6.936275940E0,4.852356056E0,1.026271802E1
1.293532471E1,5.715853275E0,7.157350978E0,4.439187120E0,1.017865580E1
1.294536671E1,5.205629915E0,7.308834209E0,4.115483507E0,9.871922042E0
1.295540871E1,4.551890155E0,7.576964715E0,3.474694745E0,9.497557678E0
1.296545071E1,3.950497009E0,6.918855915E0,1.904544850E0,8.191720507E0
1.297549271E1,3.582242875E0,5.109056132E0,3.201455820E-1,6.247992619E0
1.298553471E1,2.501189765E0,2.707964267E0,-2.462105806E0,4.432943233E0
1.299557671E1,-5.472555310E-2,-5.592043161E-1,-7.198336451E0,7.220232130E0
1.300561871E1,-3.852892946E0,-5.815311490E0,-1.762234204E1,1.895282488E1
1.301566071E1,-1.042392490E1,-1.516979409E1,-2.547794646E1,3.143098184E1
1.302570271E1,-1.165803356E1,-2.492247267E1,-1.664826374E1,3.215904346E1
1.303574471E1,-6.125736660E0,-2.500245089E1,-8.234801034E0,2.702700775E1
1.304578671E1,-4.624626594E0,-1.321014889E1,-7.313089228E0,1.579165852E1
1.305582871E1,-2.104249191E0,-1.680799681E-1,-3.929506381E0,4.460620578E0
1.306587071E1,1.658922031E0,1.094813246E1,8.283937526E-1,1.110404714E1
1.307591271E1,5.891649814E0,1.894648262E1,4.908722337E0,2.043957671E1
1.308595471E1,8.468438814E0,1.731423705E1,1.037676360E1,2.189005444E1
1.309599671E1,8.546942947E0,9.511168104E0,1.423150192E1,1.913238614E1
1.310603871E1,5.542082212E0,2.067966633E0,9.860917554E0,1.149908067E1
1.311608071E1,1.296572416E0,-3.739064614E0,3.151834009E0,5.059225419E0
1.312612271E1,-3.495702037E0,-7.731736420E0,-6.440939006E-1,8.509673187E0
1.313616471E1,-4.786780409E0,-1.161846896E1,-4.209872186E0,1.325236248E1
1.314620671E1,-2.392896553E0,-1.619607634E1,-8.314496244E0,1.836218098E1
1.315624871E1,2.033065773E0,-1.435093832E1,-3.572478902E0,1.492800699E1
1.316629071E1,5.067532715E0,-2.680812721E0,7.114666303E0,9.137019277E0
1.317633271E1,6.732892238E0,6.458528016E0,1.302854840E1,1.602459034E1
1.318637546E1,6.139732556E0,9.665293107E0,7.807994052E0,1.385925603E1
1.319641746E1,6.222123333E0,1.016829165E1,4.118845656E0,1.261244874E1
1.320645946E1,5.297564517E0,8.070359203E0,3.637419541E0,1.031628365E1
1.321650146E1,4.067345720E0,4.347808880E0,4.089499358E0,7.222932110E0
1.322654346E1,3.262266862E0,1.166638806E0,7.125032247E0,7.922721484E0
1.323658546E1,2.667627250E0,-5.221645439E-1,6.980404876E0,7.490990802E0
1.324662746E1,1.336783426E0,-9.070352948E-1,5.070241145E0,5.321376534E0
1.325666946E1,1.792796519E-2,-1.329377927E0,2.936898547E0,3.223808332E0
1.326671146E1,-6.062603323E-2,-2.210891880E0,1.406169995E0,2.620883911E0
1.327675346E1,-3.460214116E-1,-3.403366608E0,1.179820184E0,3.618647641E0
1.328679546E1,-1.354901462E0,-4.708430058E0,1.514306647E0,5.128176694E0
1.329683746E1,-2.619161726E0,-5.394510768E0,2.220215265E0,6.394537544E0
1.330687946E1,-2.940980196E0,-4.150279995E0,2.647973589E0,5.734627510E0
1.331692146E1,-2.112084606E0,-1.493847824E0,1.944679699E0,3.236396428E0
1.332696346E1,-9.041553218E-1,1.300775687E0,2.920911529E-1,1.610848061E0
1.333700546E1,-1.904659601E-1,2.718403301E0,-3.290088645E-1,2.744857123E0
1.334704746E1,-2.493183319E-1,2.181673928E0,-1.017334393E-1,2.198228935E0
1.335708946E1,-9.157675997E-1,1.003927166E0,1.225863645E-1,1.364378052E0
1.336713146E1,-1.702355880E0,2.400714719E-1,1.784209152E-1,1.728433938E0
1.337717346E1,-2.023833458E0,2.031357801E-1,9.425360799E-2,2.036185098E0
1.338721546E1,-2.332944028E0,5.505761647E-1,-4.076697025E-1,2.431451529E0
1.339725746E1,-2.570911379E0,1.254262841E0,-1.547958543E0,3.252527670E0
1.340729946E1,-2.406560327E0,1.469956686E0,-2.906783633E0,4.049900783E0
1.341734146E1,-2.524163183E0,1.189523054E0,-3.560305291E0,4.523509549E0
1.342738346E1,-2.735535351E0,9.198547304E-1,-3.588113480E0,4.604763265E0
1.343742546E1,-3.025350548E0,7.040977353E-1,-3.078105297E0,4.373011752E0
1.344746746E1,-3.331395277E0,3.158911479E-1,-2.176839596E0,3.992068679E0
1.345750946E1,-3.513037570E0,1.204397786E-1,-1.204456843E0,3.715730748E0
1.346755146E1,-3.286155662E0,4.102856737E-1,-5.192555541E-1,3.352130621E0
1.347759346E1,-3.081683208E0,5.208436579E-1,-4.228530943E-1,3.153863385E0
1.348763546E1,-3.178364580E0,6.895469391E-1,-1.010055633E0,3.405537956E0
1.349767746E1,-2.907802510E0,6.162497520E-1,-2.988524491E0,4.215015757E0
1.350771946E1,-1.871527523E0,2.770422471E-1,-6.121675769E0,6.407361540E0
1.351776146E1,-1.759236717E0,-4.679240173E-1,-6.898933282E0,7.135064621E0
1.352780346E1,-2.458610633E0,-2.028559324E0,-3.594884555E0,4.804478550E0
1.353784546E1,-3.786192588E0,-3.106516918E0,-9.823863164E-2,4.898505129E0
1.354788746E1,-4.640267311E0,-2.749305836E0,1.034496702E0,5.491898281E0
1.355792946E1,-5.128965316E0,-2.574039640E0,1.410044360E0,5.909330790E0
1.356797146E1,-4.802259158E0,-3.129142719E0,1.472810712E0,5.917972505E0
1.357801346E1,-3.554545784E0,-3.988238447E0,-3.148538226E0,6.201139782E0
1.358805546E1,-2.912535539E0,-4.840723312E0,-9.129888128E0,1.073640176E1
1.359809746E1,-3.480203699E0,-5.515432357E0,-1.039449703E1,1.227099753E1
1.360813946E1,-3.284768995E0,-4.458629989E0,-6.073927406E0,8.219591405E0
1.361818146E1,-2.407275003E0,-1.995605001E0,-4.131212810E0,5.181151565E0
1.362822346E1,-4.443352969E0,-1.328462838E0,-5.762486574E0,7.396921700E0
1.363826546E1,-5.882587799E0,-2.332104076E0,-4.582310295E0,7.812881432E0
1.364830746E1,-6.342823312E0,-3.322880854E0,-3.795554565E0,8.104269196E0
1.365834946E1,-6.739650450E0,-4.515694721E0,-2.804804099E0,8.583781977E0
1.366839146E1,-7.052473564E0,-6.326086242E0,-3.487583470E-1,9.480421029E0
1.367843346E1,-4.994508592E0,-7.214829108E0,-2.136724992E-1,8.777501414E0
1.368847546E1,-1.077159449E0,-5.835084434E0,2.197225950E-1,5.937740383E0
1.369851746E1,6.040686862E-1,-4.864165385E0,1.641941425E0,5.169233551E0
1.370855946E1,1.184777892E0,-4.595950094E0,1.952088268E0,5.131968875E0
1.371860146E1,1.949048885E0,-4.167332230E0,1.172287216E0,4.747600109E0
1.372864346E1,1.921918535E0,-4.245302512E0,3.560567685E-1,4.673664590E0
1.373868546E1,2.720914680E0,-4.426152214E0,2.195926662E0,5.640593411E0
1.374872746E1,2.498673123E0,-5.080886586E0,8.197598709E0,9.962901207E0
1.375876946E1,1.178400626E0,-6.098399173E0,3.435308193E0,7.097918208E0
1.376881146E1,6.554005884E-1,-6.199763580E0,-2.378351458E0,6.672568774E0
1.377885346E1,3.542905805E-1,-6.323300044E0,1.187887588E0,6.443657516E0
1.378889546E1,2.712931915E-1,-6.028197502E0,3.803933040E0,7.133209074E0
1.379893746E1,1.272565064E0,-4.522201502E0,4.621487224E0,6.589982734E0
1.380897946E1,2.793463131E0,-1.861090974E0,5.062817520E0,6.074472580E0
1.381902146E1,3.920715970E0,1.198100334E0,5.640865073E0,6.973293117E0
1.382906346E1,3.492279954E0,3.030202568E0,6.611916270E0,8.068183416E0
1.383910546E1,2.908155389E0,4.004179711E0,6.184354997E0,7.920673561E0
1.384914746E1,2.708725282E0,4.627072484E0,5.687431129E0,7.816256475E0
1.385918946E1,2.329468735E0,5.126249285E0,5.957591203E0,8.197423331E0
1.386923146E1,2.632181429E0,5.381393124E0,6.538175279E0,8.867666379E0
1.387927346E1,3.959860155E0,5.600553784E0,6.561112736E0,9.491833093E0
1.388931546E1,4.833795239E0,5.421655297E0,6.805420516E0,9.953575788E0
1.389935746E1,5.281178865E0,5.091558339E0,6.968681209E0,1.011816853E1
1.390939946E1,5.729832214E0,5.477461123E0,6.692038912E0,1.037385860E1
1.391944146E1,6.070976316E0,5.999091817E0,6.475873196E0,1.071367303E1
1.392948346E1,6.202272620E0,6.334061844E0,6.285314777E0,1.086709285E1
1.393952546E1,6.071518353E0,6.527932127E0,5.575827663E0,1.051508854E1
1.394956746E1,5.908437755E0,6.629691221E0,4.913367366E0,1.014906997E1
1.395960946E1,5.552769753E0,6.976388424E0,4.477405983E0,9.977495262E0
1.396965146E1,5.213950503E0,7.631236816E0,4.077799664E0,1.010195552E1
1.397969346E1,4.597638186E0,8.141055549E0,2.951933785E0,9.804538511E0
1.398973546E1,3.700666534E0,7.584446812E0,1.080989668E0,8.508072925E0
1.399977746E1,2.764991577E0,5.831142241E0,-8.839025402E-1,6.513730264E0
1.400981946E1,1.212327926E0,3.311792194E0,-3.805792454E0,5.188618578E0
1.401986146E1,-8.396649916E-1,3.158548951E-1,-8.315781462E0,8.364031500E0
1.402990346E1,-4.293008775E0,-4.429478111E0,-1.720599105E1,1.827830213E1
1.403994546E1,-1.152534737E1,-1.314170489E1,-2.177972757E1,2.792659257E1
1.404998746E1,-1.270129377E1,-2.257618383E1,-1.216865687E1,2.861962875E1
1.406002946E1,-7.543616874E0,-2.505137103E1,-7.957027885E0,2.734577918E1
1.407007146E1,-6.382445215E0,-1.545079023E1,-6.944302998E0,1.810209573E1
1.408011246E1,-2.628311741E0,-1.569230129E0,-3.389708389E0,4.567343732E0
1.409015446E1,1.850871503E0,1.030448032E1,-5.423576108E-1,1.048342462E1
1.410019646E1,4.107751442E0,1.779796901E1,3.532755258E0,1.860434580E1
1.411023846E1,6.473081735E0,1.688409247E1,1.027882273E1,2.079970102E1
1.412028046E1,6.858244262E0,9.165431013E0,1.282750125E1,1.719259807E1
1.413032246E1,4.746817614E0,1.918871405E0,7.954120649E0,9.459512685E0
1.414036446E1,1.034257259E0,-3.867243183E0,3.507913362E0,5.322660431E0
1.415040646E1,-3.732898725E0,-8.226976290E0,9.633077288E-1,9.085462759E0
1.416044846E1,-5.128111038E0,-1.251517222E1,-4.944672773E0,1.440058497E1
1.417049046E1,-2.298443702E0,-1.649765935E1,-9.711924067E0,1.928152163E1
1.418053246E1,5.313944322E0,-1.261237984E1,-3.241235597E0,1.406469828E1
1.419057371E1,1.019740026E1,-6.191979182E-1,8.413445166E0,1.323466802E1
1.420061571E1,8.557581371E0,6.402328087E0,1.012686296E1,1.472329301E1
1.421065771E1,6.381565794E0,8.396561331E0,6.234772614E0,1.225149027E1
1.422069971E1,5.543309543E0,8.151769402E0,5.523325514E0,1.129985618E1
1.423074171E1,4.177991704E0,5.767433903E0,5.467009810E0,8.978145954E0
1.424078371E1,2.992548838E0,2.570055347E0,8.829264060E0,9.670389696E0
1.425082571E1,2.760716093E0,7.750881958E-1,9.549768498E0,9.970977556E0
1.426086771E1,2.241633616E0,-3.170985979E-1,6.482861788E0,6.866802004E0
1.427090971E1,5.833012035E-1,-8.673385477E-1,2.628329283E0,2.828538716E0
1.428095171E1,-5.716255929E-1,-1.279415808E0,1.042613515E0,1.746626340E0
1.429099371E1,-4.085219342E-1,-1.799112242E0,1.644743410E0,2.471614031E0
1.430103571E1,-3.559319670E-1,-2.430289351E0,2.671970562E0,3.629382947E0
1.431107771E1,-1.289152007E0,-3.452430595E0,3.096201260E0,4.813278732E0
1.432111971E1,-2.330621660E0,-4.420261729E0,2.507911139E0,5.591075868E0
1.433116171E1,-2.863790810E0,-4.456026224E0,1.659748535E0,5.550876752E0
1.434120371E1,-2.535553266E0,-3.531670892E0,6.925021219E-1,4.402418522E0
1.435124571E1,-1.434241893E0,-9.483365178E-1,-1.224241481E0,2.110724796E0
1.436128771E1,-5.377364101E-1,1.401777567E0,-2.403162948E0,2.833607762E0
1.437132971E1,-4.382012314E-1,2.100695838E0,-2.032371123E0,2.955583818E0
1.438137171E1,-8.107767496E-1,2.102804344E0,-1.281860529E0,2.592742074E0
1.439141371E1,-1.473383154E0,1.494893306E0,-8.444787850E-1,2.262456262E0
1.440145571E1,-2.429040386E0,8.444010901E-1,-1.912594273E-1,2.578726540E0
1.441149771E1,-3.093874068E0,8.084208333E-1,5.996851748E-1,3.253494015E0
1.442153971E1,-2.884312783E0,1.890863827E0,1.117352552E0,3.625341772E0
1.443158171E1,-2.451548950E0,2.817316555E0,1.052492970E0,3.880091015E0
1.444162371E1,-2.282626106E0,2.852057787E0,2.777265175E-1,3.663570332E0
1.445166571E1,-1.974417615E0,2.412095740E0,-1.384639378E0,3.410829369E0
1.446170771E1,-1.615599572E0,1.496097248E0,-3.875325204E0,4.457198043E0
1.447174971E1,-1.336276326E0,4.630649811E-1,-4.958597333E0,5.156331167E0
1.448179171E1,-1.178131654E0,-4.602869689E-1,-3.869149375E0,4.070648004E0
1.449183371E1,-1.366450882E0,-6.059738553E-1,-2.472182897E0,2.888958394E0
1.450187571E1,-1.414644803E0,-3.303548205E-1,-1.662481670E0,2.207758938E0
1.451191771E1,-1.024814225E0,-1.470013404E-1,-1.542403688E0,1.857649786E0
1.452195971E1,-5.019082540E-1,7.148571968E-2,-2.496016148E0,2.546982276E0
1.453200171E1,-3.145861955E-1,-4.903825879E-2,-4.569836722E0,4.580914416E0
1.454204371E1,-1.258857583E0,-1.192457187E0,-5.146636187E0,5.430887643E0
1.455208471E1,-2.803695467E0,-2.720070342E0,-2.411975287E0,4.590982000E0
1.456212671E1,-4.306550049E0,-3.660706077E0,8.743224621E-1,5.719403997E0
1.457216871E1,-5.266956682E0,-3.607509279E0,2.487776837E0,6.851568395E0
1.458221071E1,-5.741917239E0,-3.523406437E0,2.704654158E0,7.259418752E0
1.459225271E1,-5.551247723E0,-3.640503947E0,6.069250511E-1,6.666181687E0
1.460229471E1,-4.803646703E0,-3.649064856E0,-6.978406883E0,9.224362232E0
1.461233671E1,-4.473164705E0,-3.850910155E0,-1.059768310E1,1.213052342E1
1.462237871E1,-5.460429354E0,-4.669150218E0,-5.739141566E0,9.195379187E0
1.463242071E1,-4.495640818E0,-3.962569755E0,-3.138814598E-1,6.000938843E0
1.464246271E1,-3.265138430E0,-1.551760987E0,-3.232126805E0,4.849302507E0
1.465250471E1,-3.907536930E0,-1.582588677E0,-9.288021982E0,1.020003844E1
1.466254671E1,-4.353169023E0,-2.624081866E0,-8.433056143E0,9.846437025E0
1.467258871E1,-4.588059277E0,-3.150638838E0,-4.855170028E0,7.385762589E0
1.468263071E1,-5.254741264E0,-3.491095308E0,-3.471232316E0,7.200660108E0
1.469267271E1,-6.122775046E0,-4.605339553E0,-1.914517568E0,7.897018689E0
1.470271471E1,-5.504977536E0,-5.955467495E0,-1.038781250E-1,8.110681933E0
1.471275671E1,-2.697322335E0,-6.332750899E0,1.209030535E0,6.988636244E0
1.472279871E1,1.472201542E-1,-5.432298984E0,1.825028272E0,5.732562622E0
1.473284071E1,1.253391606E0,-4.790405683E0,1.592630686E0,5.201485329E0
1.474288271E1,2.033056709E0,-4.208240520E0,8.757597077E-1,4.754951412E0
1.475292471E1,2.294179912E0,-4.005922766E0,6.051576570E-1,4.655845193E0
1.476296671E1,2.857708536E0,-3.920569205E0,-2.243998376E-1,4.856718672E0
1.477300871E1,3.557841275E0,-3.410103770E0,3.616037443E0,6.112509227E0
1.478305071E1,2.505585117E0,-4.912154653E0,8.345649040E0,1.000285349E1
1.479309271E1,1.788984573E0,-5.612450529E0,1.494507244E0,6.077303567E0
1.480313471E1,1.759794285E-1,-5.704767539E0,-2.394749390E0,6.189520666E0
1.481317671E1,-8.592734832E-1,-6.174459170E0,7.897519894E-1,6.283789077E0
1.482321871E1,-2.277302289E-1,-5.410178382E0,4.029955114E0,6.749994771E0
1.483326071E1,1.403137629E0,-4.123244809E0,5.581981273E0,7.080145330E0
1.484330271E1,3.807985745E0,-1.029875355E0,5.890776240E0,7.089615179E0
1.485334471E1,4.147052917E0,1.847462869E0,5.948073691E0,7.482696544E0
1.486338671E1,3.609938797E0,3.629693030E0,5.667604390E0,7.637281528E0
1.487342871E1,2.734939227E0,4.627827945E0,5.531818010E0,7.713474869E0
1.488347071E1,1.967280211E0,4.861787322E0,5.945625461E0,7.928280363E0
1.489351271E1,1.887762025E0,5.190030713E0,6.519827886E0,8.544484766E0
1.490355371E1,2.453696048E0,5.451139297E0,6.930476671E0,9.152434148E0
1.491359571E1,3.338134485E0,5.272359509E0,7.039860535E0,9.407473252E0
1.492363771E1,4.081505045E0,4.848562675E0,6.957554542E0,9.411419056E0
1.493367971E1,4.575884205E0,4.866639926E0,6.888817599E0,9.595765125E0
1.494372171E1,5.099173753E0,5.239052015E0,6.699391201E0,9.916202975E0
1.495376371E1,5.566684957E0,5.602231350E0,6.459976956E0,1.020315048E1
1.496380571E1,5.955627708E0,6.072949167E0,5.720685414E0,1.025068069E1
1.497384771E1,6.290748594E0,6.408781074E0,5.117677267E0,1.033617982E1
1.498388971E1,6.395124317E0,6.669852237E0,4.593887782E0,1.031931920E1
1.499393171E1,6.240902835E0,7.244784393E0,4.248921061E0,1.046370390E1
1.500397371E1,5.892587707E0,8.277283394E0,3.536774049E0,1.075847484E1
1.501401571E1,5.024323545E0,8.238345031E0,2.102750258E0,9.876017142E0
1.502405771E1,3.745705297E0,6.766761065E0,3.199900460E-1,7.740914488E0
1.503409971E1,2.508814826E0,4.552909325E0,-1.629228116E0,5.447707720E0
1.504414171E1,8.922909558E-2,1.683584710E0,-5.097450578E0,5.369024279E0
1.505418371E1,-3.097378889E0,-2.572521703E0,-1.286316809E1,1.347860220E1
1.506422571E1,-9.737892137E0,-1.026074782E1,-2.343654782E1,2.737482900E1
1.507426771E1,-1.504661314E1,-2.079979270E1,-2.024222327E1,3.269219397E1
1.508430971E1,-9.733621330E0,-2.691994469E1,-8.709858069E0,2.992137085E1
1.509435171E1,-5.881738783E0,-1.991000319E1,-7.524770129E0,2.208223819E1
1.510439371E1,-3.777161271E0,-5.923764476E0,-5.205625237E0,8.743938869E0
1.511443571E1,1.480915537E0,6.548224888E0,-1.591338451E0,6.899617242E0
1.512447771E1,5.446741607E0,1.736632170E1,2.475857872E0,1.836807001E1
1.513451971E1,7.766156055E0,2.155017056E1,7.712963934E0,2.417049532E1
1.514456171E1,8.913145292E0,1.543542959E1,1.361998140E1,2.243213184E1
1.515460371E1,6.346515244E0,6.165160342E0,1.253651456E1,1.534443401E1
1.516464571E1,3.286848849E0,-6.105469626E-1,7.089512751E0,7.838197114E0
1.517468771E1,-1.726972512E0,-5.745054270E0,2.398886295E0,6.460862023E0
1.518472921E1,-6.845723035E0,-9.989998348E0,-2.478722423E-2,1.211051631E1
1.519477121E1,-7.256432632E0,-1.446900179E1,-7.559283904E0,1.786478661E1
1.520481321E1,-2.264113383E0,-1.829688970E1,-1.086739294E1,2.140099557E1
1.521485521E1,6.402898775E0,-1.221963289E1,-6.693994805E-1,1.381175718E1
1.522489721E1,1.102930351E1,3.110765505E-1,7.853124617E0,1.354303772E1
1.523493921E1,8.656780554E0,6.170822201E0,7.732096024E0,1.314550133E1
1.524498121E1,7.248940594E0,8.304298700E0,4.995885612E0,1.210237124E1
1.525502321E1,6.885541989E0,8.258885130E0,5.767640895E0,1.220186681E1
1.526506521E1,5.600370766E0,6.181092251E0,5.651372520E0,1.007512112E1
1.527510721E1,3.982709612E0,3.103102729E0,7.145754195E0,8.749458578E0
1.528514921E1,2.999743837E0,1.305562218E0,9.066737030E0,9.638914677E0
1.529519121E1,2.253145907E0,4.482995921E-1,8.298684204E0,8.610795463E0
1.530523321E1,1.335082471E0,-9.335722983E-2,5.676726047E0,5.832356247E0
1.531527521E1,2.151690210E-1,-8.571246314E-1,3.791938062E0,3.893552954E0
1.532531721E1,-8.411877528E-1,-2.342443122E0,1.910844347E0,3.137827710E0
1.533535921E1,-2.187497170E0,-4.534310501E0,1.059337721E0,5.144639151E0
1.534540121E1,-3.149674924E0,-6.830837778E0,1.349843182E0,7.642177274E0
1.535544321E1,-3.783457260E0,-6.863900859E0,3.012279682E0,8.396517893E0
1.536548521E1,-3.153869717E0,-4.281104429E0,2.189234962E0,5.750434683E0
1.537552721E1,-1.576554789E0,-4.107628065E-1,-1.073751107E0,1.951202841E0
1.538556921E1,-7.535879108E-1,1.965735084E0,-2.306926550E0,3.123126521E0
1.539561121E1,-3.078559772E-1,2.476311616E0,-2.088495623E0,3.254029577E0
1.540565321E1,-4.948104651E-1,2.193718023E0,-1.506549731E0,2.706829927E0
1.541569521E1,-1.345224028E0,1.156759935E0,-6.989866841E-1,1.906909441E0
1.542573721E1,-2.310516448E0,8.624526143E-2,-2.470979979E-1,2.325291793E0
1.543577921E1,-3.006285994E0,-8.902385831E-2,2.523073554E-3,3.007604876E0
1.544582121E1,-3.542201435E0,3.521637654E-1,4.223000208E-1,3.584626568E0
1.545586221E1,-3.397820232E0,1.427807032E0,8.420938519E-1,3.780600125E0
1.546590421E1,-2.682280665E0,2.344123027E0,8.121518686E-1,3.653646533E0
1.547594621E1,-2.425690224E0,2.321111310E0,5.452504476E-1,3.401298109E0
1.548598821E1,-2.481284088E0,1.938571844E0,-4.467524189E-1,3.180317476E0
1.549603021E1,-2.750434933E0,1.591659463E0,-3.233077562E0,4.533327993E0
1.550607221E1,-2.886459880E0,1.199722352E0,-5.689891053E0,6.491983099E0
1.551611421E1,-2.643281783E0,8.131991780E-1,-5.323755366E0,5.999216839E0
1.552615621E1,-2.525815898E0,2.927876294E-1,-3.534478140E0,4.354079268E0
1.553619821E1,-2.356335083E0,4.761329234E-2,-1.966675317E0,3.069591805E0
1.554624021E1,-1.984845393E0,1.450922245E-1,-1.133294474E0,2.290200723E0
1.555628221E1,-1.394982371E0,1.317740214E-1,-1.157830560E0,1.817666585E0
1.556632421E1,-5.744350704E-1,3.891111517E-1,-2.597062759E0,2.688143990E0
1.557636621E1,7.140371248E-2,-2.757739860E-1,-5.194243047E0,5.202048694E0
1.558640821E1,-4.774731052E-1,-1.978342851E0,-5.358311241E0,5.731781604E0
1.559645021E1,-2.260032026E0,-2.901121189E0,-2.052638450E0,4.211599876E0
1.560649221E1,-4.072226098E0,-3.002885545E0,8.723471265E-1,5.134329216E0
1.561653421E1,-5.087799164E0,-2.703329179E0,2.207835979E0,6.169945599E0
1.562657621E1,-5.294478357E0,-2.962557884E0,2.398550080E0,6.523901653E0
1.563661821E1,-4.427992626E0,-3.229132445E0,-4.887386432E-1,5.502116002E0
1.564666021E1,-3.741882095E0,-3.476421136E0,-7.357897611E0,8.956888007E0
1.565670221E1,-4.591750039E0,-4.425803136E0,-9.221102938E0,1.121162973E1
1.566674421E1,-5.313677689E0,-4.773612480E0,-4.886398253E0,8.654445943E0
1.567678521E1,-4.031042112E0,-3.131269936E0,-2.228376955E0,5.569543587E0
1.568682721E1,-4.258591771E0,-1.745509647E0,-6.146549824E0,7.678703181E0
1.569686921E1,-5.690614938E0,-2.596049729E0,-6.995067939E0,9.383685206E0
1.570691121E1,-5.844525933E0,-3.471113033E0,-4.698355891E0,8.263271577E0
1.571695321E1,-6.136976178E0,-4.237596467E0,-4.219441447E0,8.568744748E0
1.572699521E1,-6.464812603E0,-5.271030437E0,-2.908211523E0,8.833756739E0
1.573703721E1,-5.560986260E0,-6.441210317E0,-8.791827408E-1,8.554923777E0
1.574707921E1,-2.384350848E0,-6.276760885E0,2.103102772E-1,6.717669729E0
1.575712121E1,5.741318192E-1,-5.051242957E0,1.235410248E0,5.231722587E0
1.576716321E1,1.307495892E0,-4.463872603E0,1.840716351E0,5.002393508E0
1.577720521E1,1.548807558E0,-4.207745261E0,1.295139556E0,4.667045265E0
1.578724721E1,1.973214843E0,-4.044306813E0,7.326385065E-1,4.559249236E0
1.579728921E1,2.461496526E0,-4.359963487E0,2.774643429E-1,5.014502290E0
1.580733121E1,3.476372019E0,-4.468805898E0,5.103937479E0,7.622700726E0
1.581737321E1,2.112786857E0,-5.621780931E0,8.143582131E0,1.011860757E1
1.582741521E1,1.273633351E0,-5.836107697E0,2.377396754E-1,5.978194971E0
1.583745721E1,4.812740877E-2,-5.737596146E0,-2.595212992E0,6.297416634E0
1.584749921E1,-5.297946487E-1,-5.749514526E0,1.262355680E0,5.910257314E0
1.585754121E1,6.770769478E-1,-4.778472100E0,4.105610776E0,6.336266144E0
1.586758321E1,2.066337599E0,-2.996652414E0,5.080248070E0,6.249687769E0
1.587762521E1,3.629564684E0,-7.642252386E-2,5.335239297E0,6.453244033E0
1.588766721E1,4.172197698E0,2.577347410E0,5.772400528E0,7.574335691E0
1.589770921E1,3.335895587E0,3.917311721E0,6.151700052E0,8.019784537E0
1.590775021E1,2.678696614E0,4.857094347E0,5.397053722E0,7.739184061E0
1.591779221E1,2.168206767E0,5.395579639E0,5.517061976E0,8.015695421E0
1.592783421E1,1.951338509E0,5.377236924E0,6.417696324E0,8.597047459E0
1.593787621E1,2.814847276E0,5.462306895E0,6.592770731E0,9.012479554E0
1.594791821E1,3.668959714E0,5.360339055E0,6.542995723E0,9.219831517E0
1.595796021E1,4.375566490E0,4.981834168E0,6.665032961E0,9.401431708E0
1.596800221E1,4.966934293E0,4.629652276E0,6.734608980E0,9.563423790E0
1.597804421E1,5.350337977E0,5.001277914E0,6.519456003E0,9.805213094E0
1.598808621E1,5.731436689E0,5.286530237E0,6.296217495E0,1.002193211E1
1.599812821E1,6.067724095E0,5.604835700E0,5.838389865E0,1.011524864E1
1.600817021E1,6.129216338E0,5.865440254E0,5.122011808E0,9.909878266E0
1.601821221E1,5.988101975E0,6.035639253E0,4.404760468E0,9.575396662E0
1.602825421E1,5.828746637E0,6.810484790E0,3.961230450E0,9.800425353E0
1.603829621E1,5.383891640E0,7.773591959E0,3.448895368E0,1.006528193E1
1.604833821E1,4.667964695E0,7.892803822E0,2.077472452E0,9.402241135E0
1.605838021E1,3.663091449E0,6.701165830E0,1.631493035E-1,7.638748598E0
1.606842221E1,2.317338248E0,4.408394220E0,-2.655860898E0,5.644253119E0
1.607846421E1,6.584596324E-1,1.712881599E0,-6.496508020E0,6.750714697E0
1.608850621E1,-2.064288150E0,-2.100758988E0,-1.358781821E1,1.390335490E1
1.609854821E1,-8.973045924E0,-9.139189879E0,-2.275240254E1,2.610961827E1
1.610858921E1,-1.464891126E1,-1.959486984E1,-1.959876642E1,3.134742685E1
1.611863121E1,-1.024063223E1,-2.693617422E1,-9.564668373E0,3.036298587E1
1.612867321E1,-6.637725295E0,-2.096171614E1,-6.736018159E0,2.299623624E1
1.613871521E1,-3.839439965E0,-6.493013724E0,-4.689791474E0,8.882267195E0
1.614875721E1,7.826809515E-1,6.004850739E0,-1.968483568E0,6.367554431E0
1.615879921E1,5.072627978E0,1.571566208E1,2.411314844E0,1.668915901E1
1.616884121E1,8.331651975E0,1.830709193E1,8.850146806E0,2.197478414E1
1.617888321E1,8.303661938E0,1.292482815E1,1.553379964E1,2.184721757E1
1.618892517E1,5.533384479E0,5.606721427E0,1.231234634E1,1.461668709E1
1.619896717E1,1.842081968E0,-7.498492742E-1,5.027354157E0,5.406461850E0
1.620900917E1,-2.828863344E0,-5.108426387E0,2.076051579E0,6.197457392E0
1.621905117E1,-5.307924029E0,-8.900607108E0,-6.697152302E-1,1.038476687E1
1.622909317E1,-3.723170420E0,-1.406379325E1,-7.943172323E0,1.657547179E1
1.623913517E1,1.227240372E0,-1.678381740E1,-7.681453289E0,1.849884781E1
1.624917717E1,6.081796004E0,-8.745903815E0,3.684772047E0,1.127193955E1
1.625921917E1,7.722725860E0,2.460342286E0,1.249174477E1,1.489085176E1
1.626926117E1,6.058634014E0,7.516965850E0,8.505799599E0,1.286702951E1
1.627930317E1,6.337817511E0,9.369044511E0,4.338060987E0,1.211468939E1
1.628934517E1,5.687156895E0,8.169000562E0,3.663173310E0,1.060637367E1
1.629938617E1,3.976218910E0,4.756702332E0,4.902123170E0,7.903628627E0
1.630942817E1,3.035614750E0,1.634939969E0,7.272331796E0,8.048279031E0
1.631947017E1,2.144410938E0,2.743741626E-1,7.532337595E0,7.836446204E0
1.632951217E1,9.751739951E-1,1.488701105E-3,5.299557248E0,5.388531671E0
1.633955417E1,-2.808742929E-1,-3.794065279E-1,3.312682725E0,3.346148012E0
1.634959617E1,-7.463851643E-1,-1.538686028E0,1.945335903E0,2.590169354E0
1.635963817E1,-1.340239423E0,-3.065971740E0,2.028752282E0,3.913088325E0
1.636968017E1,-2.255908570E0,-4.931759782E0,2.345566705E0,5.908727544E0
1.637972217E1,-2.843413264E0,-6.122193248E0,2.732642441E0,7.282416073E0
1.638976417E1,-2.549559979E0,-5.095786461E0,2.341676552E0,6.160417584E0
1.639980617E1,-1.336347370E0,-2.553855636E0,1.048285314E0,3.067067818E0
1.640984817E1,9.492234673E-2,6.846387863E-1,-1.005174378E0,1.219883621E0
1.641989017E1,3.195573521E-1,2.200657498E0,-1.563944246E0,2.718626846E0
1.642993217E1,9.153881885E-2,2.373722218E0,-1.032910645E0,2.590336064E0
1.643997417E1,-3.788169824E-1,1.607146983E0,-2.757126085E-1,1.674049334E0
1.645001617E1,-1.113794375E0,6.918840712E-1,4.104762930E-1,1.373947694E0
1.646005817E1,-1.925692475E0,3.465194482E-1,7.787818088E-1,2.105912710E0
1.647009917E1,-2.499536757E0,5.631862700E-1,9.108300646E-1,2.719278246E0
1.648014117E1,-2.349067725E0,1.442992251E0,1.018173907E0,2.938881406E0
1.649018317E1,-1.974977486E0,2.266114739E0,9.553881868E-1,3.154136754E0
1.650022517E1,-1.675144546E0,2.354584281E0,1.515334442E-1,2.893637637E0
1.651026717E1,-1.669963036E0,2.062987145E0,-1.688375772E0,3.145680411E0
1.652030917E1,-1.975881612E0,1.747120555E0,-4.229914395E0,4.984848459E0
1.653035117E1,-2.315773095E0,1.277684448E0,-4.908480847E0,5.575703256E0
1.654039317E1,-2.373877607E0,8.253988087E-1,-3.324401130E0,4.167519761E0
1.655043517E1,-2.379645447E0,4.589543885E-1,-1.536423156E0,2.869485616E0
1.656047717E1,-2.602661760E0,-1.639915949E-1,-6.931611031E-1,2.698372435E0
1.657051917E1,-2.467420925E0,-4.110867423E-1,-7.580957486E-1,2.613784133E0
1.658056117E1,-2.178293214E0,-1.821495384E-1,-1.870017918E0,2.876648535E0
1.659060317E1,-1.912375002E0,-3.141644651E-1,-4.192410938E0,4.618678051E0
1.660064517E1,-1.931129947E0,-1.024026386E0,-6.290792449E0,6.659726912E0
1.661068717E1,-2.711020314E0,-1.769853945E0,-5.062190698E0,6.008975686E0
1.662072917E1,-3.758705996E0,-2.233024760E0,-1.399602695E0,4.590550953E0
1.663077017E1,-4.795011827E0,-2.829285221E0,1.168304678E0,5.688754618E0
1.664081217E1,-5.600996418E0,-2.864181404E0,2.460446366E0,6.754886551E0
1.665085417E1,-5.783792658E0,-2.924294289E0,2.186734255E0,6.839997172E0
1.666089617E1,-5.162141833E0,-2.935957146E0,-1.139166248E0,6.046920903E0
1.667093817E1,-4.734023321E0,-3.183020718E0,-6.843528575E0,8.909347959E0
1.668098017E1,-5.054284093E0,-4.073003778E0,-7.883220820E0,1.021177350E1
1.669102217E1,-5.601253111E0,-4.290871618E0,-5.483336990E0,8.936028212E0
1.670106417E1,-4.199624648E0,-2.894022084E0,-2.719217234E0,5.779822954E0
1.671110617E1,-3.405646437E0,-1.509741141E0,-5.220833260E0,6.413645290E0
