"Time (s)","Linear Acceleration x (m/s^2)","Linear Acceleration y (m/s^2)","Linear Acceleration z (m/s^2)","Absolute acceleration (m/s^2)"
1.331579167E-2,-1.524208322E-1,-1.455898225E-1,-1.939067103E0,1.950489615E0
2.335679167E-2,-5.087255958E-1,-2.104699427E-1,-1.499390985E0,1.597270376E0
3.339679167E-2,-7.168075356E-1,-7.150469390E-1,-1.499620196E0,1.809410373E0
4.343779167E-2,-7.227930379E-1,-3.513390157E-1,-1.801787928E0,1.972893463E0
5.347879167E-2,-4.500876707E-1,1.702650726E-1,-1.311053338E0,1.396577947E0
6.351879166E-2,2.257767838E-1,-2.771667928E-2,-1.384615989E0,1.403176684E0
7.355979166E-2,8.119850037E-1,-3.726664424E-1,-1.320198383E0,1.594090240E0
8.360079167E-2,9.866322720E-1,-2.254388148E-1,-4.236471462E-1,1.097152133E0
9.364079167E-2,8.803901178E-1,-1.622643274E-1,5.540833247E-1,1.052817554E0
1.036817917E-1,5.229220507E-1,-1.739754233E-1,1.203089764E0,1.323306426E0
1.137227917E-1,2.855724576E-1,-5.713440129E-1,1.027585001E0,1.209924189E0
1.237627917E-1,-4.204683074E-1,-2.339973843E-1,1.078087403E0,1.180601889E0
1.338037917E-1,-1.427789052E0,6.194929102E-1,1.946297770E0,2.492073043E0
1.438447917E-1,-1.230277270E0,1.129815965E0,1.937985953E0,2.558487020E0
1.538847917E-1,-1.104927511E0,9.260820150E-2,2.184658347E0,2.449933300E0
1.639257917E-1,-5.229734331E-1,-8.191472581E-1,1.924145594E0,2.155652966E0
1.739657917E-1,1.255634744E0,-4.874221426E-1,-9.912878251E-1,1.672378697E0
1.840067917E-1,3.402282242E0,-4.872701150E-1,-3.678990905E0,5.034672849E0
1.940477917E-1,4.585460190E0,-1.575125876E-1,-3.391478049E0,5.705556829E0
2.040872917E-1,4.187045825E0,3.492863506E-1,-1.003977453E0,4.319875510E0
2.141282917E-1,3.253836055E0,4.088335177E-1,1.183427916E0,3.486415860E0
2.241692917E-1,2.962512568E0,3.948042932E-1,7.630423468E-1,3.084572056E0
2.342092917E-1,9.472797067E-1,2.217457134E-1,1.173674176E0,1.524474032E0
2.442502917E-1,-8.719251037E-1,8.133001886E-1,2.676240783E0,2.929842199E0
2.542912917E-1,-2.979346117E0,9.117639381E-1,2.151858975E0,3.786596600E0
2.643312917E-1,-3.978337649E0,-1.309959763E0,-1.861298550E0,4.583404556E0
2.743722917E-1,-3.023063994E0,-1.675616270E0,-4.061405826E0,5.333068824E0
2.844132917E-1,-8.018348951E-1,1.951650019E-1,-2.583096977E0,2.711718748E0
2.944532917E-1,2.436804027E0,1.233300865E0,-1.987739326E0,3.377891727E0
3.044942917E-1,4.935773896E0,1.118669272E0,-7.398844492E-1,5.114754529E0
3.145342917E-1,5.796555376E0,-2.026548320E0,-8.008416724E-1,6.192600399E0
3.245752917E-1,6.469179304E0,-4.025631976E0,-3.736038095E0,8.486104779E0
3.346162917E-1,3.860066310E0,-2.581975773E0,-9.982951283E-3,4.644008018E0
3.446562917E-1,-1.818389051E0,-7.875351638E-2,4.443606153E0,4.801913837E0
3.546972917E-1,-3.481846182E0,9.038774329E-1,4.372285910E0,5.661901741E0
3.647382917E-1,-2.434677979E0,2.526521949E-1,1.160428478E0,2.708889855E0
3.747782917E-1,-3.194490324E0,4.246334253E-1,-4.539556038E-1,3.254405885E0
3.848192917E-1,-2.534976731E0,3.618128407E-1,-1.681163378E0,3.063221484E0
3.948602917E-1,-2.054236202E0,-2.464243256E-2,-2.790853227E0,3.465451681E0
4.049002917E-1,-2.129196775E0,-3.397141662E-1,-3.470412537E0,4.085663691E0
4.149412917E-1,-2.820444523E0,-1.028449146E0,-3.262444033E0,4.433526365E0
4.249822917E-1,-2.233388603E0,-1.776329151E0,-2.281782353E0,3.653751581E0
4.350222917E-1,-1.469166873E0,-2.186074835E0,-4.467313689E-1,2.671505830E0
4.450632917E-1,2.170217478E0,-2.910985442E0,3.164416047E0,4.816348105E0
4.551032917E-1,1.365535589E1,-2.418159741E0,2.878771377E1,3.195385274E1
4.651442917E-1,6.533236721E0,-2.355649351E0,6.068242158E0,9.222571702E0
4.751852917E-1,-1.482147692E0,1.081343571E0,-1.615955814E1,1.626337557E1
4.852252917E-1,5.560395691E0,-2.048276573E0,-1.595528098E1,1.702011834E1
4.952662917E-1,6.697117803E0,-2.545982068E0,-9.189555455E0,1.165252509E1
5.053072917E-1,3.951394264E0,-3.017334015E0,-4.999334884E0,7.050614900E0
5.153472917E-1,3.830271238E0,-4.235661623E0,-1.169822615E0,5.829261711E0
5.253882917E-1,2.215763341E0,-4.340903319E0,1.575011855E-1,4.876254242E0
5.354292917E-1,1.925949606E0,-4.108176242E0,-7.368398041E-1,4.596664749E0
5.454692917E-1,7.019692026E-2,-3.297616497E0,-1.714762064E0,3.717473753E0
5.555102917E-1,-7.628806713E-1,-2.884104622E0,-2.796002285E0,4.088725372E0
5.655502917E-1,-1.278276917E0,-2.451184376E0,-4.051252136E0,4.904583631E0
5.755912917E-1,-1.086948712E0,-2.626870987E0,-5.881372163E0,6.532415113E0
5.856322917E-1,-7.080685794E-3,-3.789757050E0,-7.972905999E0,8.827770880E0
5.956722917E-1,-1.687482902E0,-4.904345697E0,-8.001734526E0,9.535615380E0
6.057132917E-1,-1.765107467E0,-5.302770293E0,-1.043746237E1,1.183957761E1
6.157542917E-1,-1.742338117E0,-5.379900330E0,-1.167100853E1,1.296886694E1
6.257942917E-1,-3.076853408E0,-7.215413244E0,-1.215256767E1,1.446423576E1
6.358352917E-1,-4.101053164E0,-8.647382909E0,-1.201668305E1,1.536217888E1
6.458762917E-1,-5.325407789E0,-1.062931420E1,-1.119434468E1,1.632959403E1
6.559162917E-1,-6.724922483E0,-1.201228478E1,-1.054391444E1,1.734052190E1
6.659572917E-1,-6.709202244E0,-1.311531640E1,-8.990078278E0,1.725822779E1
6.759982917E-1,-5.910692441E0,-1.359346428E1,-7.117925541E0,1.644333969E1
6.860382917E-1,-5.130396715E0,-1.373623925E1,-4.288722181E0,1.527738123E1
6.960792917E-1,-4.217463918E0,-1.367010022E1,-1.518292694E0,1.438623838E1
7.061192917E-1,-2.723775723E0,-1.420474857E1,5.954354185E-1,1.447578597E1
7.161602917E-1,1.897515035E-1,-1.526297298E1,2.626733578E0,1.548851443E1
7.262012917E-1,2.389733648E0,-1.435999215E1,5.388881654E0,1.552289428E1
7.362412917E-1,4.765518764E0,-1.298936738E1,8.610471776E0,1.629644311E1
7.462822917E-1,7.591192160E0,-9.603444768E0,1.457027089E1,1.903011150E1
7.563232917E-1,8.252080725E0,-6.400743492E0,1.869241525E1,2.141197659E1
7.663632917E-1,8.048565461E0,-4.284812733E0,1.812813789E1,2.029207751E1
7.764042917E-1,8.988397788E0,-2.318441471E0,1.687629814E1,1.926073478E1
7.864452917E-1,1.152632269E1,-1.606319602E0,1.547678929E1,1.936407457E1
7.964852917E-1,1.393360851E1,-1.979691803E-1,1.519512189E1,2.061738022E1
8.065262917E-1,1.375472347E1,1.750487382E0,1.530724693E1,2.065353317E1
8.165672917E-1,1.330431829E1,2.445275180E0,1.545367992E1,2.053778175E1
8.266072917E-1,1.240532175E1,1.901222169E0,1.480767252E1,1.941066251E1
8.366482917E-1,1.123414083E1,6.359016591E-1,1.425241040E1,1.815878556E1
8.466882917E-1,1.139072459E1,-9.852640235E-1,1.627284794E1,1.988780862E1
8.567292917E-1,1.218537055E1,-2.184233254E0,1.850782918E1,2.226642924E1
8.667702917E-1,1.192918649E1,-2.894168265E0,1.954307988E1,2.307842437E1
8.768102917E-1,1.198927598E1,-3.221063288E0,1.879807561E1,2.252744180E1
8.868512917E-1,1.143945762E1,-3.326297967E0,1.642671157E1,2.029192701E1
8.968922917E-1,1.075750270E1,-3.499042844E0,1.203259450E1,1.651515957E1
9.069322917E-1,1.233760865E1,-2.432429432E0,6.090089110E0,1.397220404E1
9.169732917E-1,1.533838803E1,6.874097818E-1,5.308570147E-2,1.535387566E1
9.270142917E-1,1.644169915E1,4.609547794E0,-8.245616044E0,1.896226742E1
9.370542917E-1,1.548509467E1,5.876585047E0,-1.224089805E1,2.059519346E1
9.470952917E-1,1.520421314E1,3.592272604E0,-6.154367552E0,1.679132990E1
9.571352917E-1,1.525268188E1,3.198705289E0,-6.716667384E0,1.697025754E1
9.671762917E-1,1.046393740E1,2.756524224E0,-3.181691938E0,1.127898822E1
9.772172917E-1,7.073974945E0,-1.042131704E-1,-2.987304178E0,7.679581249E0
9.872572917E-1,4.533182573E0,-9.926671833E-1,-5.000005560E0,6.821670468E0
9.972982917E-1,2.921874419E0,-1.690025418E0,-2.448495827E0,4.169972164E0
1.007339292E0,4.244418121E0,6.833933294E-2,6.150955117E-1,4.289300402E0
1.017379292E0,4.697991317E0,4.814354124E0,3.443449271E0,7.556882355E0
1.027420292E0,1.597807226E0,7.730614339E0,6.495777118E-1,7.920690449E0
1.037461292E0,4.096052917E0,7.778795396E0,9.497521287E-1,8.842473433E0
1.047501292E0,5.616043058E0,7.691032782E0,5.318865339E0,1.090789867E1
1.057542292E0,-2.629264253E0,1.055234145E1,-2.778575828E0,1.122432288E1
1.067583292E0,-7.701778210E0,7.848795923E0,-2.059045537E0,1.118752223E1
1.077623292E0,-6.250342580E0,2.972631467E0,-1.608964882E0,7.105778508E0
1.087664292E0,-1.007355857E1,3.603192279E0,-7.095956383E0,1.283791937E1
1.097704292E0,-1.403316086E1,4.037579007E0,-1.078937354E1,1.815605214E1
1.107745292E0,-8.819067101E0,3.987444395E0,-7.963758615E0,1.253383854E1
1.117786292E0,-5.158307814E0,4.646630836E0,-7.165647007E0,9.977264889E0
1.127826292E0,-4.422952033E0,4.930027837E0,-6.134592853E0,9.027785367E0
1.137867292E0,-2.028692640E0,4.080329754E0,-4.016095167E0,6.074018861E0
1.147908292E0,-7.980472881E-1,1.402007947E0,-2.214076858E0,2.739460182E0
1.157948292E0,9.179046839E-2,-2.015435248E0,-4.623510361E-1,2.069824439E0
1.167989292E0,1.518354675E0,-3.526604279E0,1.966169533E0,4.313717804E0
1.178030292E0,3.622769634E0,-3.305100056E0,3.584737297E0,6.074412539E0
1.188070292E0,6.611585317E0,-2.572860256E0,3.701666992E0,8.002187753E0
1.198111292E0,7.480120205E0,-1.807056270E0,3.441544248E0,8.429820725E0
1.208151000E0,6.966628252E0,-1.493023952E0,3.121785167E0,7.778725625E0
1.218192000E0,6.536159159E0,-2.225379526E0,3.599555896E0,7.786558497E0
1.228233000E0,5.051706641E0,-3.005457151E0,3.225721765E0,6.705057313E0
1.238273000E0,2.736866469E0,-3.272943878E0,1.626630490E0,4.566018665E0
1.248314000E0,-2.246342379E-1,-2.851512827E0,1.238544356E0,3.116982204E0
1.258355000E0,-1.143790226E0,-1.527398563E0,-7.191256642E-2,1.909548080E0
1.268395000E0,-3.252127790E-1,-2.618681377E-1,-1.721555943E0,1.771466381E0
1.278436000E0,-1.620668962E0,1.043432710E0,-2.038711259E0,2.805648464E0
1.288477000E0,-2.267964359E0,1.547546899E0,-1.718646954E0,3.239183707E0
1.298517000E0,-4.033689731E0,2.168121836E0,-7.429518986E-1,4.639329980E0
1.308558000E0,-4.390408477E0,3.362441946E0,-1.835567293E0,5.826749499E0
1.318598000E0,-3.272640992E0,5.073385193E0,-1.501949142E0,6.221355769E0
1.328639000E0,-2.918969230E0,6.897554508E0,-2.241795584E0,7.818074379E0
1.338680000E0,-2.541294647E0,6.778273648E0,-2.002153590E0,7.510778331E0
1.348720000E0,-3.239236434E0,6.378083192E0,1.139217703E0,7.243646517E0
1.358761000E0,-3.163636613E0,6.316481021E0,1.253842134E0,7.174862313E0
1.368802000E0,-4.341578380E0,6.771380950E0,-3.912832169E0,8.944895661E0
1.378842000E0,-3.741450278E0,5.254692147E0,-3.805160955E0,7.489291665E0
1.388883000E0,-1.822688655E0,3.743547090E0,-6.445226769E0,7.673153645E0
1.398924000E0,-1.206134555E0,3.268753179E0,-9.080621828E0,9.726109227E0
1.408964000E0,-9.159078598E-3,6.839821440E-1,-4.591733083E0,4.642405429E0
1.419005000E0,-1.664426161E0,-1.810212012E0,-9.308401868E-1,2.629381187E0
1.429045000E0,-7.430989560E-1,5.094866109E-1,-1.748054355E0,1.966587576E0
1.439086000E0,1.856918109E0,4.623249575E0,-3.187015536E0,5.914359604E0
1.449127000E0,2.425550768E-1,-2.516641617E-2,1.778566296E0,1.795205945E0
1.459167000E0,-1.560117681E0,-5.580437608E0,4.174598273E0,7.141604989E0
1.469208000E0,-1.977852854E0,1.212880341E0,-1.020606349E0,2.534683009E0
1.479249000E0,1.207512597E0,7.773781993E0,2.630016789E0,8.294984115E0
1.489289000E0,1.698234762E0,-5.648215608E0,2.419515710E0,6.374982128E0
1.499330000E0,7.824013084E-3,-5.818036292E0,1.760211155E0,6.078482609E0
1.509371000E0,1.251540816E0,-2.124808586E0,-1.061190996E0,2.684640064E0
1.519411000E0,8.142170320E-1,-1.022321337E0,5.631770606E-1,1.423115840E0
1.529452000E0,7.554881828E-1,-1.617694191E0,5.623983577E-2,1.786297794E0
1.539493000E0,-2.057054852E-1,-2.784676228E0,-1.043948580E0,2.981034230E0
1.549533000E0,2.234563455E0,-1.872119408E0,1.793500085E0,3.422681327E0
1.559574000E0,3.120155548E0,3.524116874E-3,2.652771814E0,4.095434209E0
1.569614000E0,3.654260691E0,-1.302385426E0,3.274749498E0,5.076791632E0
1.579655000E0,5.742158729E0,3.585863471E-1,3.482448446E0,6.725207671E0
1.589696000E0,5.793420099E0,-8.853561580E-2,2.936739503E0,6.495844357E0
1.599736000E0,7.380662575E0,6.418621354E0,5.544057401E0,1.124319584E1
1.609777000E0,1.080057096E1,-2.087019201E0,-1.975695232E0,1.117637480E1
1.619818000E0,5.755386885E0,-4.742523419E0,6.016222843E-1,7.481841748E0
1.629858000E0,2.545081889E0,-4.303379397E0,7.948190403E-1,5.062435517E0
1.639899000E0,-2.599341529E-1,-4.655144382E0,3.711426945E-1,4.677144629E0
1.649939000E0,-9.465955094E-1,-4.789178352E0,-1.234434932E0,5.035484282E0
1.659980000E0,-8.613033441E-1,-5.890524809E0,-1.874120910E0,6.241190204E0
1.670021000E0,-1.305976201E0,-8.192677692E0,-2.161195225E0,8.572998682E0
1.680061000E0,-2.070018714E0,-7.190664319E0,-1.436738069E0,7.619373144E0
1.690102000E0,-1.983543364E0,-4.987460359E0,-9.146027613E-1,5.444786802E0
1.700143000E0,-1.276519682E0,-2.989509455E0,-1.072365317E0,3.422957297E0
1.710183000E0,-2.163061948E0,4.047466063E-1,-6.405239562E-1,2.291926645E0
1.720224000E0,-1.221637132E0,1.829145296E0,-2.984045378E-1,2.219733106E0
1.730265000E0,-8.585346875E-1,5.734773695E-1,-9.685094118E-2,1.036985153E0
1.740305000E0,-2.081304352E-1,1.308139670E0,1.244862711E-1,1.330430196E0
1.750346000E0,1.447878769E0,3.621393492E0,5.700941706E-1,3.941554404E0
1.760387000E0,1.057315534E0,5.836464377E0,1.417388609E0,6.098460710E0
1.770427000E0,2.599346682E0,7.025986846E0,2.458272371E0,7.884427524E0
1.780468000E0,3.330398619E0,7.786352338E0,2.522758974E0,8.836467084E0
1.790508000E0,2.797772529E0,8.290494593E0,1.620714862E0,8.898682397E0
1.800549000E0,2.332371732E0,8.553605264E0,4.421759494E-1,8.876916159E0
1.810590000E0,1.568340182E0,7.916161695E0,7.562484670E-1,8.105382079E0
1.820630000E0,-2.233042156E-1,5.030256715E0,2.457456100E0,5.602895490E0
1.830671000E0,4.323492649E-1,4.689740603E0,1.202238994E0,4.860655450E0
1.840712000E0,3.199994016E-1,5.712054339E0,3.795815058E-1,5.733589322E0
1.850752000E0,-3.450673287E-1,6.478472283E0,8.281763823E-1,6.540302035E0
1.860793000E0,-9.095493782E-1,6.739469186E0,2.055266189E0,7.104353882E0
1.870833000E0,-1.729039210E0,5.852126729E0,4.515488899E0,7.591218864E0
1.880874000E0,-2.532592821E0,3.952771575E0,8.047389586E0,9.316593190E0
1.890915000E0,-3.447067528E0,2.842147926E0,8.574141855E0,9.668298089E0
1.900955000E0,-3.528268982E0,3.095220682E0,5.067488276E0,6.907134753E0
1.910996000E0,-2.720968475E0,3.041528040E0,1.472241193E0,4.338439395E0
1.921037000E0,-1.934861493E0,2.169349751E0,-3.114779034E0,4.260471309E0
1.931077000E0,-9.876670830E-1,2.798885547E0,-2.167050042E0,3.674962919E0
1.941118000E0,-7.522229514E-1,-8.470555506E0,-4.873571216E0,9.801420629E0
1.951159000E0,1.350590018E0,-2.874657977E1,-4.725441363E0,2.916367155E1
1.961199000E0,1.100288550E0,-3.087819160E1,4.137316718E0,3.117355836E1
1.971240000E0,3.949022341E0,-2.737818630E1,4.654077265E0,2.805031725E1
1.981280000E0,4.693426395E0,-1.124822560E1,-9.313831007E-1,1.222367805E1
1.991321000E0,1.466183916E0,-1.214754374E0,-4.244376898E0,4.651887651E0
2.001362000E0,6.920581721E-2,2.835310192E0,-4.900595877E0,5.662120917E0
2.011402000E0,-4.045033622E-1,4.115282655E0,-3.962886089E0,5.727446242E0
2.021443000E0,-7.100493237E-1,4.165593853E0,-2.124808002E0,4.729815137E0
2.031484000E0,-3.025641739E-2,3.986092519E0,-1.733027011E-1,3.989972787E0
2.041524000E0,8.181435104E-1,3.590942363E0,1.272423123E0,3.896573682E0
2.051565000E0,6.344940881E-1,2.932778599E0,2.176776885E0,3.707037991E0
2.061606000E0,6.523033183E-1,2.385340635E0,2.130649370E0,3.264202246E0
2.071646000E0,1.416626863E0,1.854699383E0,1.646948980E0,2.856428261E0
2.081687000E0,2.021718081E0,1.472817729E0,9.015014899E-1,2.658804430E0
2.091727000E0,1.184650861E0,2.176804367E0,-1.935673964E-1,2.485828484E0
2.101768000E0,3.727436256E-1,7.720441353E-1,-8.191083741E-1,1.185718553E0
2.111809000E0,4.441796440E-1,1.123706210E-1,-8.458511996E-1,9.619703553E-1
2.121849000E0,-5.030133046E-1,1.228176073E0,-6.786132306E-1,1.490622275E0
2.131890000E0,-2.158206274E0,1.815347037E0,-5.906926688E-1,2.881363742E0
2.141931000E0,-2.867775688E0,-3.345238853E-1,-7.945073106E-1,2.994542618E0
2.151971000E0,-3.004097673E0,-1.469350330E0,-6.016585370E-1,3.397879665E0
2.162012000E0,-1.874027793E0,-4.893283349E-1,-1.462517639E-1,1.942372767E0
2.172053000E0,-4.383409068E-1,1.953580477E0,6.256234235E-1,2.097623441E0
2.182093000E0,-5.444153921E-1,5.235284069E0,1.856168203E0,5.581213829E0
2.192134000E0,-9.811801820E-1,7.684352923E0,2.757741029E0,8.222963576E0
2.202174125E0,-7.887747735E-1,9.183520544E0,3.663810364E0,9.918806461E0
2.212215125E0,6.427180508E-1,9.401538073E0,3.524181778E0,1.006090760E1
2.222256125E0,3.157976216E0,6.231743757E0,2.529977946E0,7.430224252E0
2.232296125E0,4.974820433E0,-5.242496610E-1,2.192470812E0,5.461740044E0
2.242337125E0,5.133230860E0,-6.112175798E0,3.070078824E0,8.551849860E0
2.252378125E0,6.510341948E0,-1.207575630E1,3.494476753E0,1.415697038E1
2.262418125E0,7.368067088E0,-1.951911799E1,2.234951857E0,2.098283559E1
2.272459125E0,8.201518682E0,-2.386616848E1,4.405222106E-1,2.523990821E1
2.282500125E0,6.837110671E0,-2.305729508E1,-2.066627036E0,2.413826601E1
2.292540125E0,3.094261154E0,-2.191047599E1,-4.329174389E0,2.254739810E1
2.302581125E0,2.171935829E0,-2.163567089E1,-4.552452657E0,2.221585887E1
2.312621125E0,3.169946636E0,-2.071182719E1,-3.876660708E0,2.130860966E1
2.322662125E0,3.974409489E0,-1.814350905E1,-3.317651104E0,1.886768826E1
2.332703125E0,3.754869053E0,-1.339727616E1,-2.834388086E0,1.419928892E1
2.342743125E0,2.255366533E0,-8.003914368E0,-2.781513469E0,8.768474245E0
2.352784125E0,6.295987992E-1,-3.475958036E0,-3.283708017E0,4.823009150E0
2.362825125E0,-1.467200747E0,-1.879698569E-1,-3.782921070E0,4.061834872E0
2.372865125E0,-3.426820667E0,2.411049673E0,-3.276290824E0,5.318866606E0
2.382906125E0,-4.936705357E0,4.527024871E0,-1.207295666E0,6.806069114E0
2.392947125E0,-5.832421027E0,6.891113800E0,1.480823736E0,9.148629591E0
2.402987125E0,-5.560222029E0,9.428130040E0,4.091569272E0,1.168531746E1
2.413028125E0,-5.025731555E0,1.127726989E1,5.848137174E0,1.366146047E1
2.423068125E0,-3.892771541E0,1.289909572E1,6.265292741E0,1.485914647E1
2.433109125E0,-3.105177613E0,1.475263736E1,5.782468264E0,1.614680700E1
2.443150125E0,-2.374615672E0,1.657151670E1,4.995758142E0,1.747030523E1
2.453190125E0,-2.283884427E-1,1.706273895E1,3.314480159E0,1.738318154E1
2.463231125E0,2.426228752E0,1.523401406E1,1.407700796E0,1.549010626E1
2.473272125E0,3.357601913E0,1.350041169E1,3.554803061E-1,1.391621258E1
2.483312125E0,2.658768134E0,1.208277179E1,2.144746824E-1,1.237369878E1
2.493353125E0,1.167459901E0,1.099684094E1,3.426232656E-2,1.105869102E1
2.503393125E0,-5.224073495E-1,1.032966778E1,-2.311873038E-2,1.034289517E1
2.513434125E0,-2.085665570E0,9.897032297E0,2.386611235E-1,1.011722335E1
2.523475125E0,-3.160699557E0,9.545454422E0,4.494567561E-1,1.006517428E1
2.533515125E0,-3.937991568E0,9.184880022E0,4.815544617E-1,1.000508337E1
2.543556125E0,-4.273643966E0,8.864865417E0,4.706950128E-1,9.852483211E0
2.553597125E0,-4.178669104E0,8.597157665E0,4.018241680E-1,9.567332861E0
2.563637125E0,-3.622796824E0,8.454182133E0,2.485177567E-1,9.201065886E0
2.573678125E0,-2.759701016E0,8.269847490E0,1.208291849E-1,8.718998045E0
2.583718125E0,-2.132488758E0,7.937326276E0,-8.341873566E-2,8.219222311E0
2.593759125E0,-1.755772095E0,7.710871800E0,-3.797772413E-1,7.917355008E0
2.603800125E0,-1.537218085E0,7.641954762E0,-8.495290983E-1,7.841186882E0
2.613840125E0,-1.475998760E0,7.731183273E0,-1.199798366E0,7.961738708E0
2.623881125E0,-1.500820483E0,7.736884308E0,-1.232403610E0,7.976882824E0
2.633922125E0,-1.610923992E0,7.400113338E0,-1.305907788E0,7.685190217E0
2.643962125E0,-1.527042175E0,6.420735122E0,-2.139343595E0,6.937902300E0
2.654003125E0,-1.053915744E0,4.791785626E0,-3.522891297E0,6.040091967E0
2.664044125E0,-8.226169959E-2,2.972712743E0,-3.356116428E0,4.484117028E0
2.674084125E0,1.158525794E0,-1.106644034E-1,-2.055489845E0,2.362089568E0
2.684125125E0,3.445334998E0,-6.539656379E0,-7.235812426E-1,7.427045753E0
2.694166125E0,8.994196472E0,-2.220331625E1,1.257835490E0,2.398885101E1
2.704206125E0,1.510076888E1,-4.878607072E1,4.510907021E0,5.126853030E1
2.714247125E0,1.368433819E1,-5.888735561E1,2.745329729E0,6.051874584E1
2.724287125E0,8.003108037E0,-3.757362774E1,-2.497076833E0,3.849756658E1
2.734328125E0,6.673213216E0,-2.101265240E1,-9.263000431E-1,2.206629483E1
2.744369125E0,5.424771279E0,-1.709412329E1,5.237798957E0,1.868346147E1
2.754409125E0,4.257679898E0,-1.912038349E1,9.174713468E0,2.163081760E1
2.764450125E0,4.822936960E0,-2.037516556E1,9.094963878E0,2.282819442E1
2.774491125E0,6.088682855E0,-1.884215426E1,6.718181228E0,2.091011227E1
2.784531125E0,5.476640174E0,-1.565476567E1,2.135048815E0,1.672195291E1
2.794572125E0,3.456811913E0,-1.103439059E1,-2.374001130E0,1.180437231E1
2.804612125E0,1.134498854E0,-6.720069294E0,-6.146413000E0,9.177407680E0
2.814653125E0,-2.140496520E0,-3.431947213E0,-8.378733755E0,9.303932844E0
2.824694125E0,-5.434493444E0,-6.626485777E-1,-8.002597575E0,9.696101798E0
2.834734125E0,-8.061296604E0,1.828451816E0,-5.375907267E0,9.860431934E0
2.844775125E0,-8.818734979E0,4.567574142E0,-2.649176946E0,1.027866522E1
2.854816125E0,-7.048928981E0,7.215574043E0,-7.013029855E-2,1.008745889E1
2.864856125E0,-4.471340666E0,9.390814864E0,3.142193120E0,1.086525052E1
2.874897125E0,-1.416893204E0,1.164875286E1,5.458068248E0,1.294185220E1
2.884938125E0,-4.557600546E-1,1.364259024E1,4.027185581E0,1.423187301E1
2.894978125E0,-9.108930684E-1,1.642072168E1,2.034753864E0,1.657136235E1
2.905019125E0,-2.164200109E0,2.000948070E1,2.352661132E0,2.026322023E1
2.915059125E0,-2.899888304E0,2.202147018E1,2.755910851E0,2.238190219E1
2.925100125E0,-2.184714480E0,2.241640282E1,2.604574385E0,2.267271268E1
2.935141125E0,-9.966580541E-1,2.004738936E1,1.642513282E0,2.013924024E1
2.945181125E0,-1.519313910E0,1.600231598E1,1.840383060E0,1.617929051E1
2.955222125E0,-1.750355235E0,1.276286963E1,2.030160291E0,1.304132415E1
2.965263125E0,-1.371555355E0,1.030745538E1,1.904590166E0,1.057129435E1
2.975303125E0,-5.466024701E-1,8.528624205E0,1.733229325E0,8.720108313E0
2.985344125E0,5.516975876E-1,7.433136658E0,1.139135842E0,7.540127404E0
2.995385125E0,1.349861308E0,6.798448881E0,3.242959356E-1,6.938746327E0
3.005425125E0,1.632719050E0,6.288714933E0,-2.631597877E-1,6.502534896E0
3.015466125E0,1.562534482E0,5.886929941E0,-6.502454638E-1,6.125379768E0
3.025506125E0,1.294787700E0,5.365769364E0,-1.073199130E0,5.623140798E0
3.035547125E0,5.105611829E-1,4.517702655E0,-1.202728406E0,4.702857176E0
3.045588125E0,-3.690527169E-1,4.541643494E0,-2.473958112E0,5.184900604E0
3.055628125E0,-1.191897462E0,5.607404966E0,-3.037628531E0,6.487742066E0
3.065669125E0,-2.164896658E0,6.966582643E0,-2.785341057E0,7.808852417E0
3.075710125E0,-2.819228010E0,7.790102157E0,-2.386756246E0,8.621504716E0
3.085750125E0,-3.133390429E0,8.797507247E0,-1.927450440E0,9.535687419E0
3.095791125E0,-3.299165424E0,1.003795253E1,-1.485678095E0,1.067015571E1
3.105831125E0,-3.138223152E0,1.092967748E1,-9.653180015E-1,1.141219230E1
3.115872125E0,-3.202984282E0,1.130021904E1,-1.114912363E-1,1.174591372E1
3.125913125E0,-1.842304894E0,1.034504128E1,1.054123174E0,1.056054649E1
3.135953125E0,-1.343794384E0,8.143260534E0,1.158728693E0,8.334334266E0
3.145994125E0,-1.974073068E0,5.782942473E0,-4.157744916E-1,6.124725019E0
3.156035125E0,-2.219988247E0,3.567962220E0,-1.293907328E-1,4.204217428E0
3.166075125E0,-2.717223333E0,6.803668106E-1,2.714377493E0,3.900518788E0
3.176116125E0,-2.304140059E0,-5.781935583E0,4.871248117E0,7.903726888E0
3.186157125E0,8.104849005E-1,-2.242966430E1,5.625540690E0,2.313857028E1
3.196197125E0,5.531420399E0,-5.387296123E1,8.161151844E0,5.476766347E1
3.206238250E0,1.108368846E1,-7.443909217E1,1.295681008E0,7.527088005E1
3.216278250E0,1.144968206E1,-4.817564947E1,-1.488299986E1,5.170582275E1
3.226319250E0,8.300337796E0,-2.162694918E1,-1.528567304E1,2.775378062E1
3.236360250E0,1.056988310E1,-1.133505208E1,-6.165297167E0,1.667982984E1
3.246400250E0,1.191546541E1,-1.033180319E1,5.643491642E0,1.675032749E1
3.256441250E0,9.239752632E0,-1.497353113E1,1.152576486E1,2.103385174E1
3.266482250E0,6.112795603E0,-1.723924767E1,1.116775388E1,2.143074094E1
3.276522250E0,6.554415336E0,-1.578266299E1,6.847856684E0,1.841048485E1
3.286563250E0,5.632940927E0,-1.203849551E1,1.451453757E0,1.337019505E1
3.296604250E0,1.918351588E0,-7.382177004E0,-3.214099254E0,8.276898220E0
3.306644250E0,-1.217531071E0,-3.170886576E0,-6.494227606E0,7.328840003E0
3.316685250E0,-3.463032181E0,4.960660815E-2,-7.757068897E0,8.495126284E0
3.326725250E0,-5.078547699E0,2.350462579E0,-6.270773921E0,8.404696701E0
3.336766250E0,-6.317718292E0,4.428120387E0,-3.100849797E0,8.314871258E0
3.346807250E0,-6.202041655E0,6.806916234E0,5.068647559E-1,9.222599481E0
3.356847250E0,-4.780739943E0,9.468223228E0,3.671826897E0,1.122430569E1
3.366888250E0,-3.046411342E0,1.196310034E1,5.219128797E0,1.340282422E1
3.376929250E0,-1.566024393E0,1.383117698E1,5.367699530E0,1.491864898E1
3.386969250E0,-4.702094746E-1,1.534276643E1,5.556414907E0,1.632468454E1
3.397010250E0,-9.334083570E-1,1.736552064E1,5.091010455E0,1.812045655E1
3.407051250E0,-1.764859546E0,1.913174346E1,4.404895831E0,1.971145465E1
3.417091250E0,-6.010929651E-1,1.920548854E1,3.509164374E0,1.953269919E1
3.427132250E0,1.220094417E0,1.746531039E1,1.737812372E0,1.759391057E1
3.437172250E0,1.841272129E0,1.521375814E1,4.629439437E-1,1.533176562E1
3.447213250E0,1.033863303E0,1.292760324E1,4.528738689E-1,1.297678287E1
3.457254250E0,4.291483529E-1,1.100823716E1,8.046341765E-1,1.104594450E1
3.467294250E0,2.186003499E-1,9.464790913E0,1.288212944E0,9.554556281E0
3.477335250E0,2.508027937E-1,8.346657684E0,1.328309641E0,8.455412648E0
3.487376250E0,5.734357081E-2,7.516611509E0,2.901587029E-1,7.522428393E0
3.497416250E0,1.525770260E-1,7.012762783E0,-5.497844883E-1,7.035935232E0
3.507457250E0,-1.066863234E-1,6.775485111E0,-1.101001471E0,6.865186429E0
3.517497250E0,-6.361843720E-1,6.753949231E0,-1.431716480E0,6.933280093E0
3.527538250E0,-1.141815621E0,6.975692605E0,-1.997418222E0,7.345318903E0
3.537579250E0,-1.616444933E0,7.387670463E0,-2.265920611E0,7.894616223E0
3.547619250E0,-2.159840132E0,7.966092823E0,-2.166401001E0,8.533278242E0
3.557660250E0,-2.714977418E0,8.660491782E0,-1.646741989E0,9.224260375E0
3.567701250E0,-3.084054839E0,9.618763304E0,-6.783846045E-1,1.012384351E1
3.577741250E0,-3.175577797E0,1.070987479E1,5.356166482E-2,1.117088096E1
3.587782250E0,-2.655473228E0,1.102081686E1,4.934897252E-1,1.134695882E1
3.597823250E0,-1.282385609E0,1.007355038E1,5.412293905E-1,1.016926051E1
3.607863250E0,-4.300859539E-1,8.564598030E0,2.193459430E-1,8.578194797E0
3.617904250E0,9.487078160E-2,6.969988647E0,-6.914098620E-2,6.970977168E0
3.627944250E0,5.663537067E-1,5.654116033E0,-8.979569077E-1,5.752921975E0
3.637985250E0,1.539393541E-1,4.326559514E0,-1.123535471E0,4.472711315E0
3.648026250E0,-8.962775874E-1,1.498117461E0,2.934834480E-1,1.770254777E0
3.658066250E0,-1.093626232E0,-7.179717162E0,1.276261235E0,7.373818523E0
3.668107250E0,2.092971666E0,-3.038464917E1,2.142336785E0,3.053190205E1
3.678148250E0,4.607346902E0,-7.133136722E1,3.053054071E0,7.154517967E1
3.688188250E0,2.302086078E0,-7.327929929E1,-7.046842110E0,7.365333182E1
3.698229250E0,4.461854728E0,-3.209395871E1,-1.232210652E1,3.466647721E1
3.708270250E0,1.404873550E1,-1.183870784E1,-3.480859172E0,1.869861902E1
3.718310250E0,2.207346830E1,-9.094338226E0,7.314452798E0,2.496890487E1
3.728351250E0,1.860265347E1,-1.723525753E1,1.153276398E1,2.785888482E1
3.738391250E0,1.161631367E1,-2.280419250E1,1.056976264E1,2.768916433E1
3.748432250E0,9.407854820E0,-2.079055176E1,7.166721141E0,2.391896040E1
3.758473250E0,5.151204616E0,-1.683531617E1,2.943485436E0,1.785012286E1
3.768513250E0,-1.178488627E0,-1.237508697E1,-1.506979867E-1,1.243198789E1
3.778554250E0,-6.353780994E0,-8.502309980E0,-6.016052835E0,1.220052047E1
3.788595250E0,-1.059270478E1,-5.391943256E0,-1.107227470E1,1.624419015E1
3.798635250E0,-1.354707481E1,-2.250907885E0,-1.210021287E1,1.830314109E1
3.808676250E0,-1.341618138E1,1.994861820E0,-8.731424940E0,1.613106252E1
3.818717250E0,-1.049281329E1,6.081698940E0,-3.938927708E0,1.275152321E1
3.828757250E0,-7.213736263E0,8.430233692E0,3.136680730E-1,1.109978462E1
3.838798250E0,-2.915153922E0,1.108847967E1,6.911004274E0,1.338710140E1
3.848838250E0,1.941805939E0,1.442280060E1,1.425180813E1,2.036913897E1
3.858879250E0,1.914118204E0,1.634752039E1,1.155341517E1,2.010936781E1
3.868920250E0,9.672972109E-1,1.919026239E1,6.054854958E0,2.014604436E1
3.878960250E0,1.529802353E0,2.113073341E1,1.198124893E0,2.121988909E1
3.889001250E0,2.355184790E0,2.085202237E1,-1.582507986E0,2.104419312E1
3.899042250E0,3.023885528E0,1.873747506E1,-2.731185315E0,1.917540687E1
3.909082250E0,3.420463867E0,1.595247081E1,-2.418491424E0,1.649333195E1
3.919123250E0,1.065862775E0,1.269892331E1,-5.000725937E-1,1.275338345E1
3.929163250E0,-1.193614058E0,9.899651849E0,1.123764682E0,1.003447399E1
3.939204250E0,-1.455320813E0,7.690514134E0,2.611104555E0,8.251050437E0
3.949245250E0,-9.577557975E-1,6.120079479E0,3.476807052E0,7.103580525E0
3.959285250E0,9.571804315E-2,4.982393746E0,2.874770712E0,5.753061449E0
3.969326250E0,1.194073942E0,4.461741877E0,1.688641967E0,4.917770313E0
3.979367250E0,1.849846632E0,4.620224226E0,-1.947964629E-1,4.980597366E0
3.989407250E0,1.847566072E0,5.430201003E0,-2.130483309E0,6.118786028E0
3.999448250E0,6.734844916E-1,7.153401183E0,-2.844593232E0,7.727641329E0
4.009489250E0,-6.913962673E-1,8.727073442E0,-2.259460022E0,9.041294114E0
4.019529250E0,-1.719929102E0,1.010097031E1,-7.105594933E-1,1.027096160E1
4.029570250E0,-2.255055900E0,1.111277836E1,8.687863183E-1,1.137250674E1
4.039610250E0,-2.538173696E0,1.172846210E1,1.780491199E0,1.213133537E1
4.049651250E0,-2.265300221E0,1.188920206E1,1.846938958E0,1.224319787E1
4.059692250E0,-2.003833057E0,1.181812214E1,1.425616665E0,1.207127750E1
4.069732250E0,-2.508372777E0,1.189661750E1,1.319202018E0,1.222954357E1
4.079773250E0,-2.873505667E0,1.197808441E1,1.439930649E0,1.240181202E1
4.089814250E0,-2.859999475E0,1.151168009E1,1.334415888E0,1.193645849E1
4.099854250E0,-2.827565847E0,1.026751305E1,9.302744687E-1,1.069029295E1
4.109895250E0,-2.721084834E0,8.804844334E0,4.596712571E-1,9.227181806E0
4.119935250E0,-2.391382563E0,6.799437060E0,-2.823854327E-1,7.213237583E0
4.129976250E0,-2.419718609E0,3.724595094E0,-2.485335807E-1,4.448529611E0
4.140017250E0,-3.191214714E0,-3.567491519E-1,2.669734586E0,4.175955468E0
4.150057250E0,-4.596347997E0,-1.431327757E1,5.380923593E0,1.596717472E1
4.160098250E0,-1.913381601E0,-5.413803656E1,8.260446922E0,5.479802018E1
4.170139250E0,5.900411866E0,-9.411841101E1,6.121597416E0,9.450166192E1
4.180179250E0,1.243257913E1,-5.899790073E1,-1.306342003E1,6.169257863E1
4.190220250E0,1.511391342E1,-2.079035296E1,-1.706789502E1,3.085420872E1
4.200261250E0,1.739707572E1,-1.055748934E1,-9.200213760E0,2.233299707E1
4.210300875E0,1.351075541E1,-1.503195651E1,6.398689219E-1,2.022151479E1
4.220341875E0,5.477395635E0,-2.407188756E1,4.711606851E0,2.513278482E1
4.230381875E0,1.282447151E0,-2.452388669E1,8.523430123E0,2.599451000E1
4.240422875E0,-6.188960557E-1,-1.815362356E1,1.002818768E1,2.074853318E1
4.250463875E0,-2.129306703E0,-9.947987273E0,5.217654129E0,1.143329841E1
4.260503875E0,-3.392563877E0,-3.650314990E0,-1.672383199E0,5.256534481E0
4.270544875E0,-4.548806626E0,7.363398671E-1,-5.187018228E0,6.938227166E0
4.280585875E0,-5.887028174E0,3.688493800E0,-5.637371947E0,8.946622251E0
4.290625875E0,-6.520648835E0,5.964816023E0,-2.874808134E0,9.293137964E0
4.300666875E0,-5.429455483E0,8.163104230E0,1.635100182E0,9.939256014E0
4.310707875E0,-2.286576485E0,1.046955423E1,5.565777469E0,1.207550730E1
4.320747875E0,-1.626541905E-1,1.248464625E1,6.558646381E0,1.410349923E1
4.330788875E0,5.500351511E-1,1.462070195E1,5.558284847E0,1.565126176E1
4.340828875E0,1.480027930E0,1.653927515E1,3.936418083E0,1.706556452E1
4.350869875E0,2.554310257E0,1.767742398E1,2.288512498E0,1.800702943E1
4.360910875E0,3.069284772E0,1.823375147E1,1.330211155E0,1.853805986E1
4.370950875E0,3.349372834E0,1.784283821E1,2.315193343E-1,1.815595701E1
4.380991875E0,3.290367119E0,1.645749131E1,-6.697704864E-1,1.679655109E1
4.391032875E0,1.685871556E0,1.430189188E1,-1.054728945E0,1.443948501E1
4.401072875E0,-1.674312926E-1,1.203864753E1,-5.885959303E-1,1.205419068E1
4.411113875E0,-1.033809874E0,1.006477722E1,8.579689693E-1,1.015404422E1
4.421154875E0,-1.891101809E0,8.504650036E0,2.230137990E0,8.993267134E0
4.431194875E0,-2.826722386E0,7.226230593E0,2.338548292E0,8.104170294E0
4.441235875E0,-3.226179602E0,6.265255319E0,1.415565301E0,7.187870627E0
4.451275875E0,-2.703198202E0,6.186358838E0,5.730984700E-1,6.775452608E0
4.461316875E0,-2.014304104E0,6.700485799E0,8.110672832E-2,6.997178665E0
4.471357875E0,-1.156278563E0,7.151117261E0,-3.904291141E-1,7.254508466E0
4.481397875E0,-9.470705956E-2,7.752263070E0,-7.795215547E-1,7.791932109E0
4.491438875E0,5.842410703E-1,8.464155729E0,-8.926230776E-1,8.531122188E0
4.501479875E0,9.855654475E-1,9.096973566E0,-9.663051577E-1,9.201087598E0
4.511519875E0,1.059439901E0,9.604864472E0,-1.226101481E0,9.740593374E0
4.521560875E0,7.136349826E-1,1.005376107E1,-1.564143051E0,1.019970244E1
4.531600875E0,8.478594258E-2,1.041390628E1,-1.601787425E0,1.053671465E1
4.541641875E0,-9.743425941E-1,1.065451102E1,-1.428686599E0,1.079393783E1
4.551682875E0,-2.446687137E0,1.055723440E1,-1.141964652E0,1.089704361E1
4.561722875E0,-3.680403008E0,9.601905781E0,-1.004552892E0,1.033204178E1
4.571763875E0,-4.219120727E0,8.102270383E0,-6.034507817E-1,9.154884920E0
4.581804875E0,-4.550220483E0,6.820785829E0,-1.229131508E-1,8.200166670E0
4.591844875E0,-4.785116584E0,5.306762187E0,-1.591892767E-1,7.147335648E0
4.601885875E0,-5.211185355E0,2.569734335E0,-1.184096984E-1,5.811540950E0
4.611926875E0,-5.769987382E0,-2.536598749E0,1.493700475E0,6.477517172E0
4.621966875E0,-4.808436157E0,-1.278146963E1,3.734761063E0,1.415752324E1
4.632007875E0,-2.411432666E-1,-3.445290560E1,6.587869595E0,3.507792582E1
4.642048875E0,4.526714676E0,-7.030287941E1,9.471556726E0,7.108232119E1
4.652088875E0,1.255225877E1,-6.965712695E1,1.154155000E0,7.078846381E1
4.662129875E0,1.678838057E1,-3.593805861E1,-1.481374544E1,4.234195122E1
4.672169875E0,1.935429200E1,-1.919410986E1,-1.621537566E1,3.171657106E1
4.682210875E0,1.958328650E1,-1.490805284E1,-7.707371657E0,2.579067133E1
4.692251875E0,1.297496919E1,-2.180221830E1,-1.828331510E-1,2.537163725E1
4.702291875E0,7.702811413E0,-2.714123607E1,4.032960876E0,2.849990829E1
4.712332875E0,3.833517612E0,-2.314411453E1,7.580913924E0,2.465392770E1
4.722373875E0,-6.320322642E-1,-1.476968667E1,6.946109787E0,1.633375493E1
4.732413875E0,-4.146253603E0,-7.829701840E0,9.113973176E-1,8.906531026E0
4.742454875E0,-5.835419480E0,-2.643444920E0,-3.532907578E0,7.315829242E0
4.752495875E0,-6.760524425E0,1.837731932E0,-4.228391195E0,8.182984862E0
4.762535875E0,-7.218022272E0,5.906898767E0,-3.385914423E0,9.922485326E0
4.772576875E0,-7.110613014E0,9.002010691E0,-1.203632970E0,1.153454578E1
4.782616875E0,-4.946029912E0,1.142910805E1,2.297707829E0,1.266361654E1
4.792657875E0,-8.925350039E-1,1.311727522E1,6.849666982E0,1.482489345E1
4.802698875E0,1.284000025E0,1.446474268E1,8.031100413E0,1.659445723E1
4.812738875E0,1.801306410E0,1.671011208E1,6.193953202E0,1.791194034E1
4.822779875E0,1.542100510E0,1.868484428E1,3.475210762E0,1.906773635E1
4.832820875E0,1.172189787E0,2.038885506E1,2.460166869E0,2.057016920E1
4.842860875E0,9.723174110E-1,2.133387738E1,2.214751042E0,2.147055769E1
4.852901875E0,9.593648782E-1,1.987256229E1,1.839654497E0,1.998057661E1
4.862942875E0,-1.755476665E-1,1.585215598E1,8.747469699E-1,1.587724310E1
4.872982875E0,-9.883545694E-1,1.194235793E1,5.014010811E-1,1.199367169E1
4.883023875E0,-7.952037140E-1,9.125390450E0,5.574524903E-1,9.176919586E0
4.893063875E0,-1.673497240E-1,6.902894186E0,1.083331186E0,6.989389138E0
4.903104875E0,1.005637769E0,5.245526637E0,1.423624519E0,5.527527819E0
4.913145875E0,2.345311766E0,4.145144386E0,1.340305789E0,4.947638716E0
4.923185875E0,3.265938621E0,3.814753312E0,1.278411841E-1,5.023449142E0
4.933226875E0,3.101580698E0,4.311480714E0,-1.719992398E0,5.582745080E0
4.943267875E0,1.514177716E0,5.560015622E0,-3.039166934E0,6.514832579E0
4.953307875E0,-5.341713627E-1,6.732247875E0,-3.810408247E0,7.754206052E0
4.963348875E0,-2.025680739E0,7.505558517E0,-3.880887076E0,8.688962861E0
4.973389875E0,-3.048303793E0,8.278577383E0,-2.861975834E0,9.274583828E0
4.983429875E0,-3.726082626E0,8.990178266E0,-1.094972992E0,9.793158981E0
4.993470875E0,-3.560455565E0,9.769094049E0,8.755994940E-1,1.043449648E1
5.003510875E0,-3.224944962E0,1.039595650E1,2.691990259E0,1.121262650E1
5.013551875E0,-2.933792506E0,1.103730133E1,3.719913229E0,1.201111625E1
5.023592875E0,-2.416790469E0,1.177111637E1,3.588314624E0,1.254097518E1
5.033632875E0,-2.126614060E0,1.207264091E1,2.344312477E0,1.248066292E1
5.043673875E0,-1.933965846E0,1.178355924E1,8.074841094E-1,1.196848039E1
5.053714875E0,-1.944010632E0,1.134668102E1,3.355150614E-3,1.151200933E1
5.063754875E0,-2.332911722E0,1.046473145E1,-8.335675517E-2,1.072194151E1
5.073795875E0,-2.751477784E0,9.329664098E0,5.527817345E-1,9.742629513E0
5.083835875E0,-2.738692262E0,7.522261673E0,1.142859349E0,8.086469160E0
5.093876875E0,-2.847104903E0,4.173287619E0,1.742812911E0,5.344130680E0
5.103917875E0,-2.337942959E0,-1.056870781E0,4.031404932E0,4.778616834E0
5.113957875E0,-1.522818000E0,-1.312852643E1,6.920504830E0,1.491879915E1
5.123998875E0,2.067142030E-1,-4.568708852E1,1.051967539E1,4.688300714E1
5.134039875E0,5.957321062E0,-8.549717334E1,9.939797662E0,8.627894239E1
5.144079875E0,1.507506101E1,-6.558517274E1,-1.044932754E1,6.810184134E1
5.154120875E0,2.034465713E1,-2.764470941E1,-2.383370474E1,4.178732480E1
5.164161875E0,2.192881754E1,-1.318934917E1,-1.482862777E1,2.957566858E1
5.174201875E0,1.559031883E1,-1.672460148E1,-1.374964575E0,2.290547671E1
5.184242875E0,8.272030841E0,-2.629455691E1,5.000834695E0,2.801497037E1
5.194283875E0,5.279625260E0,-2.678798005E1,7.588737499E0,2.833830014E1
5.204324000E0,2.566944336E0,-1.943419186E1,7.675251732E0,2.105199529E1
5.214365000E0,-5.204684128E-1,-1.082542279E1,5.481154225E0,1.214511085E1
5.224405000E0,-2.934246543E0,-4.462182173E0,1.574432981E0,5.567738475E0
5.234446000E0,-4.948694488E0,-4.323431253E-3,-1.421516597E0,5.148815909E0
5.244487000E0,-6.493752812E0,3.484027779E0,-2.411514527E0,7.753881445E0
5.254527000E0,-8.380544638E0,6.497669862E0,-9.199377608E-1,1.064422508E1
5.264568000E0,-9.788820215E0,8.616540601E0,8.959874924E-1,1.307167039E1
5.274609000E0,-9.435428535E0,1.089463628E1,2.387766645E0,1.460896440E1
5.284649000E0,-7.880283179E0,1.324769035E1,3.978064291E0,1.591933284E1
5.294690000E0,-5.559582928E0,1.539447920E1,4.558150184E0,1.699045866E1
5.304730000E0,-3.098771404E0,1.701639158E1,4.283509973E0,1.781876607E1
5.314771000E0,-6.564232665E-1,1.853156536E1,3.470242968E0,1.886511046E1
5.324812000E0,1.083685527E0,1.927097034E1,2.280776632E0,1.943570463E1
5.334852000E0,2.660936281E0,1.815039122E1,1.193359412E0,1.838318226E1
5.344893000E0,3.791305393E0,1.553273077E1,-2.018634077E-1,1.599001159E1
5.354934000E0,3.801740919E0,1.263369996E1,-1.242863109E0,1.325172885E1
5.364974000E0,3.045895325E0,1.033533958E1,-1.783946904E0,1.092150123E1
5.375015000E0,2.947793372E0,8.594052794E0,-1.386063759E0,9.190669287E0
5.385056000E0,2.780893957E0,7.235044686E0,-6.772478144E-2,7.751375972E0
5.395096000E0,2.212505127E0,6.240273090E0,1.491814163E0,6.786876798E0
5.405137000E0,1.812582619E0,5.911922110E0,2.395361009E0,6.631291967E0
5.415177000E0,1.138741009E0,6.334179958E0,1.669667752E0,6.648786147E0
5.425218000E0,2.482162779E-1,7.095216710E0,-3.377468477E-2,7.099637470E0
5.435259000E0,-6.789368740E-1,7.590691638E0,-1.309637142E0,7.732703555E0
5.445299000E0,-1.586509382E0,7.710815667E0,-2.019427142E0,8.127224388E0
5.455340000E0,-2.192473589E0,7.856898994E0,-1.750179818E0,8.342717282E0
5.465381000E0,-2.451848913E0,8.254551759E0,-9.034328252E-1,8.658254945E0
5.475421000E0,-2.723672227E0,8.773321409E0,7.440932751E-2,9.186680342E0
5.485462000E0,-2.758035144E0,9.486306328E0,9.872088075E-1,9.928310371E0
5.495503000E0,-2.808605666E0,1.024628181E1,1.696670194E0,1.075886827E1
5.505543000E0,-3.160708913E0,1.087359917E1,2.146482460E0,1.152530376E1
5.515584000E0,-3.072956531E0,1.150452777E1,1.901758944E0,1.205876893E1
5.525624000E0,-2.725525502E0,1.186202303E1,1.165930123E0,1.222683412E1
5.535665000E0,-2.343842361E0,1.183362544E1,5.335362089E-1,1.207530327E1
5.545706000E0,-2.439273160E0,1.104700420E1,2.475863500E-1,1.131581435E1
5.555746000E0,-2.591559067E0,9.964168857E0,6.958478987E-1,1.031915906E1
5.565787000E0,-1.916771524E0,8.687221743E0,9.937553501E-1,8.951501795E0
5.575828000E0,-1.440609364E0,4.923214661E0,-7.629061067E-1,5.186079798E0
5.585868000E0,-2.527432069E0,3.602779466E-1,-8.744224495E-1,2.698578826E0
5.595909000E0,-3.044907730E0,-7.367485290E0,2.608537627E0,8.387834711E0
5.605950000E0,-9.873172733E-1,-2.606340010E1,7.061778238E0,2.702118302E1
5.615990000E0,4.439247639E0,-6.560544153E1,1.134917193E1,6.672768977E1
5.626031000E0,9.378891807E0,-8.115057775E1,7.171919315E0,8.200497734E1
5.636071000E0,1.155986816E1,-4.281558640E1,-1.468564932E1,4.671694860E1
5.646112000E0,1.495594037E1,-1.968771076E1,-2.129309656E1,3.262946626E1
5.656153000E0,1.963112608E1,-1.537117220E1,-1.032703420E1,2.698706508E1
5.666193000E0,1.733188628E1,-2.203443229E1,1.947211105E0,2.810163909E1
5.676234000E0,9.917705712E0,-2.668843003E1,7.733012867E0,2.950309597E1
5.686275000E0,7.749942895E0,-2.338352059E1,9.588135588E0,2.643450386E1
5.696315000E0,6.158675780E0,-1.567765752E1,8.822632148E0,1.901465410E1
5.706356000E0,2.511342870E0,-8.465447379E0,5.206753750E0,1.025089884E1
5.716397000E0,-1.207024428E0,-3.112588082E0,-3.069320440E-1,3.352509481E0
5.726437000E0,-4.006118647E0,5.120862830E-1,-4.728872509E0,6.218798452E0
5.736478000E0,-7.252931319E0,2.533364654E0,-6.252688483E0,9.905506673E0
5.746518000E0,-1.012078887E1,4.454739836E0,-4.896180060E0,1.209328961E1
5.756559000E0,-1.169343143E1,7.018462064E0,-2.103262181E0,1.379923404E1
5.766600000E0,-1.033829944E1,9.903672395E0,4.620031267E-4,1.431653458E1
5.776640000E0,-7.832236608E0,1.270084705E1,2.037314944E0,1.506008294E1
5.786681000E0,-6.446880362E0,1.484947193E1,4.523621206E0,1.680869512E1
5.796722000E0,-5.768706842E0,1.648340267E1,6.672116278E0,1.869485699E1
5.806762000E0,-4.248236645E0,1.787536977E1,5.830468057E0,1.927616966E1
5.816803000E0,-2.637018830E0,1.845190173E1,3.331614840E0,1.893478817E1
5.826844000E0,-1.323031067E0,1.778568401E1,1.304593334E0,1.788247552E1
5.836884000E0,7.143814527E-1,1.554998006E1,-9.366619670E-1,1.559453610E1
5.846925000E0,2.578170113E0,1.298499600E1,-1.903424231E0,1.337460676E1
5.856965000E0,3.476368511E0,1.110672532E1,-1.135925721E0,1.169336618E1
5.867006000E0,3.653054996E0,9.464158829E0,2.719446445E-1,1.014835292E1
5.877047000E0,2.920552656E0,7.960526274E0,1.238574761E0,8.569345005E0
5.887087000E0,1.763200544E0,6.854996719E0,1.814633092E0,7.307034243E0
5.897128000E0,1.440142610E0,6.245350227E0,1.921306186E0,6.691025905E0
5.907169000E0,1.371099857E0,6.257800119E0,1.381346226E0,6.553479575E0
5.917209000E0,1.101532837E0,6.971374437E0,-7.840181549E-2,7.058298872E0
5.927250000E0,-3.947265252E-2,7.800981486E0,-2.099962013E0,8.078781511E0
5.937291000E0,-1.585095963E0,8.293439836E0,-3.172420886E0,9.019862959E0
5.947331000E0,-2.706218289E0,8.561676176E0,-2.789486732E0,9.402507783E0
5.957372000E0,-3.323620819E0,8.716592308E0,-1.418644445E0,9.435994323E0
5.967412000E0,-3.574704060E0,8.848028360E0,-6.781366825E-2,9.543097698E0
5.977453000E0,-3.323157720E0,9.116120274E0,9.459543622E-1,9.748941262E0
5.987494000E0,-2.973937150E0,9.316678602E0,1.545510314E0,9.901181973E0
5.997534000E0,-2.980857330E0,9.430970033E0,1.445182618E0,9.995862093E0
6.007575000E0,-2.929653555E0,9.869894199E0,1.249442396E0,1.037105529E1
6.017616000E0,-2.775494638E0,1.067728358E1,1.183120937E0,1.109538329E1
6.027656000E0,-2.589397936E0,1.167138860E1,1.314921856E0,1.202727371E1
6.037697000E0,-2.653453599E0,1.184609171E1,1.572747813E0,1.224108820E1
6.047737000E0,-2.035614574E0,1.058579688E1,1.890098426E0,1.094418998E1
6.057778000E0,-9.551831688E-1,9.236427321E0,2.284600126E0,9.562602275E0
6.067819000E0,-6.185754821E-2,6.237895612E0,1.530534425E0,6.423215990E0
6.077859000E0,-1.719500209E0,1.267623729E0,1.885726865E-1,2.144553693E0
6.087900000E0,-3.476421136E0,-6.594788606E0,2.112896054E0,7.748617322E0
6.097941000E0,-1.968011552E0,-2.962972685E1,6.022589437E0,3.029959350E1
6.107981000E0,5.376706581E0,-7.833632222E1,1.036085800E1,7.920123566E1
6.118022000E0,1.256147398E1,-8.646459283E1,5.172663313E-1,8.737381762E1
6.128063000E0,1.227245313E1,-3.776932703E1,-1.961743775E1,4.429423251E1
6.138103000E0,1.341045227E1,-1.449897813E1,-1.830826371E1,2.693052389E1
6.148144000E0,1.503744003E1,-1.138394065E1,-7.448432974E0,2.027801423E1
6.158185000E0,1.122075187E1,-2.000549757E1,1.977956935E0,2.302254372E1
6.168225000E0,5.776627480E0,-2.466812347E1,7.689245288E0,2.647659785E1
6.178266000E0,3.921531072E0,-2.089422991E1,1.130689890E1,2.407889558E1
6.188306000E0,2.227848805E0,-1.280836799E1,8.524784338E0,1.554636770E1
6.198347000E0,-1.953275545E-1,-5.433124611E0,1.977702581E0,5.785179633E0
6.208388750E0,-1.716909600E0,-3.454382980E-1,-2.164718757E0,2.784441324E0
6.218428750E0,-3.483574619E0,3.079819116E0,-4.588979044E0,6.532940118E0
6.228469750E0,-5.758093561E0,5.696282644E0,-4.868085358E0,9.449948808E0
6.238510750E0,-7.783781902E0,7.586961114E0,-3.248942227E0,1.134481667E1
6.248550750E0,-8.737097324E0,9.231815622E0,-2.423741785E-1,1.271306551E1
6.258591750E0,-8.628630304E0,1.126133623E1,2.684496467E0,1.443874911E1
6.268631750E0,-7.491516429E0,1.312988766E1,4.361053408E0,1.573326270E1
6.278672750E0,-5.474265620E0,1.487594812E1,5.094319979E0,1.664973011E1
6.288713750E0,-3.376931054E0,1.631190032E1,4.899164479E0,1.736328218E1
6.298753750E0,-1.292096957E0,1.726523504E1,3.710667611E0,1.770669110E1
6.308794750E0,7.003873846E-1,1.694941406E1,2.031923811E0,1.708513663E1
6.318835750E0,2.180468524E0,1.547339323E1,2.928776765E-1,1.562901527E1
6.328875750E0,3.277611710E0,1.391232932E1,-7.623775184E-1,1.431352036E1
6.338916750E0,3.793174163E0,1.218268317E1,-1.332768143E0,1.282895983E1
6.348957750E0,3.206372451E0,1.030656777E1,-1.566241032E0,1.090684531E1
6.358997750E0,1.883217131E0,8.820853425E0,-9.901271528E-1,9.073825747E0
6.369038750E0,6.954036565E-1,7.706165376E0,2.303890675E-1,7.740907581E0
6.379078750E0,-2.539165092E-1,6.948469723E0,1.411627201E0,7.094955704E0
6.389119750E0,-8.378902155E-1,6.728952384E0,2.113502995E0,7.102658313E0
6.399160750E0,-1.304251126E0,7.049292678E0,1.599779491E0,7.345263282E0
6.409200750E0,-1.959826327E0,7.649929780E0,3.793170655E-1,7.906087927E0
6.419241750E0,-2.716756725E0,8.165448378E0,-6.460506713E-1,8.629756416E0
6.429282750E0,-2.885365574E0,8.366746963E0,-1.291479199E0,8.944031964E0
6.439322750E0,-2.457218411E0,8.650358557E0,-9.405667377E-1,9.041642067E0
6.449363750E0,-1.689247884E0,9.022622711E0,-1.452646991E-1,9.180543602E0
6.459404750E0,-7.359788015E-1,9.328167211E0,2.700747049E-1,9.361052754E0
6.469444750E0,-2.540745302E-1,9.483408448E0,2.215849515E-1,9.489398798E0
6.479485750E0,-4.627023076E-1,9.636704900E0,-1.691845437E-1,9.649290035E0
6.489525750E0,-1.174428028E0,1.002711179E1,-5.526332152E-1,1.011076929E1
6.499566750E0,-2.402919120E0,1.049925107E1,-5.210991812E-1,1.078331293E1
6.509607750E0,-3.640027691E0,1.012492402E1,-1.887574768E-1,1.076101842E1
6.519647750E0,-3.898202435E0,8.860554850E0,6.080834941E-1,9.699236053E0
6.529688750E0,-3.605904218E0,8.224995838E0,1.785350236E0,9.156450034E0
6.539729750E0,-3.131513472E0,5.975281370E0,1.873340306E0,7.001411856E0
6.549769750E0,-3.945607274E0,1.461844259E0,1.686880785E0,4.533251833E0
6.559810750E0,-5.288218328E0,-5.143112070E0,4.424961137E0,8.602158793E0
6.569851750E0,-4.306593611E0,-2.055383542E1,8.671073488E0,2.271991229E1
6.579891750E0,2.689453737E0,-5.741788951E1,1.401508595E1,5.916476850E1
6.589932750E0,1.201821619E1,-8.694262376E1,1.346796315E1,8.879664058E1
6.599973750E0,1.715480803E1,-5.330056091E1,-1.011149179E1,5.689885323E1
6.610013750E0,1.688260260E1,-2.388363529E1,-2.801412714E1,4.049989660E1
6.620054750E0,1.924506016E1,-1.478413748E1,-2.393149826E1,3.408312882E1
6.630094750E0,1.727757267E1,-1.501843541E1,-1.129100851E1,2.552557134E1
6.640135750E0,1.165189749E1,-1.999570933E1,-1.314551142E0,2.318023191E1
6.650176750E0,6.858469380E0,-2.022257662E1,5.329698476E0,2.200901845E1
6.660216750E0,3.323501244E0,-1.453730896E1,9.496819621E0,1.767960959E1
6.670257750E0,-6.783047900E-1,-7.835283008E0,8.062746713E0,1.126319856E1
6.680298750E0,-4.204007721E0,-2.251827067E0,3.007490813E0,5.638209560E0
6.690338750E0,-6.547758865E0,2.259867573E0,-1.382222139E0,7.063333890E0
6.700379750E0,-8.496489662E0,5.645345210E0,-2.161137922E0,1.042740506E1
6.710420750E0,-1.055745075E1,8.463381557E0,-1.839935163E0,1.365554668E1
6.720460750E0,-1.157587550E1,1.052454846E1,-1.150832613E0,1.568730154E1
6.730501750E0,-1.097725861E1,1.231320588E1,5.102865100E-1,1.650380678E1
6.740541750E0,-9.049397696E0,1.413587188E1,2.807891428E0,1.701760050E1
6.750582750E0,-5.695738853E0,1.551673513E1,4.940841093E0,1.725173675E1
6.760623750E0,-2.297743497E0,1.642098832E1,5.578608599E0,1.749426639E1
6.770663750E0,-2.297508439E-1,1.702986122E1,4.054561075E0,1.750738199E1
6.780704750E0,2.849545531E-1,1.706266293E1,2.380823661E0,1.723032172E1
6.790745750E0,2.994581330E-1,1.641197425E1,1.556917062E0,1.648837665E1
6.800785750E0,-1.250302083E-1,1.520776591E1,1.018725300E0,1.524236130E1
6.810826750E0,-3.831113237E-1,1.364747267E1,8.831307077E-1,1.368138167E1
6.820866750E0,5.719183557E-2,1.161788657E1,1.013306100E0,1.166213311E1
6.830907750E0,8.568904504E-1,9.660649248E0,1.174129089E0,9.769390168E0
6.840948750E0,1.696021591E0,8.038421711E0,1.245515406E0,8.309273222E0
6.850988750E0,2.543565706E0,6.840176951E0,7.200916243E-1,7.333231154E0
6.861029750E0,3.008916364E0,6.262164481E0,-2.167662062E-1,6.950918591E0
6.871070750E0,2.741619963E0,6.374248003E0,-8.850930333E-1,6.995063067E0
6.881110750E0,1.664478786E0,6.820071300E0,-1.211489289E0,7.124013508E0
6.891151750E0,2.823202363E-1,7.728786500E0,-1.574491453E0,7.892583152E0
6.901192750E0,-7.683296916E-1,8.558399397E0,-1.803197107E0,8.779980100E0
6.911232750E0,-2.176326942E0,8.842405093E0,-2.032900296E0,9.330445348E0
6.921273750E0,-3.692234556E0,8.718566912E0,-2.178114728E0,9.715461327E0
6.931313750E0,-4.736314260E0,8.658097347E0,-1.705609417E0,1.001520973E1
6.941354750E0,-5.326813459E0,8.769735312E0,-1.099628545E0,1.031951462E1
6.951395750E0,-5.450645792E0,8.872821139E0,-5.118172380E-1,1.042585495E1
6.961435750E0,-5.082522637E0,8.724735725E0,-4.646302076E-1,1.010786481E1
6.971476750E0,-4.038920943E0,7.967718349E0,-8.351999116E-1,8.971899295E0
6.981517750E0,-3.144383487E0,7.189530544E0,-5.851847378E-1,7.868858757E0
6.991557750E0,-2.398663516E0,6.020910702E0,-4.510651790E-2,6.481279730E0
7.001598750E0,-1.999022406E0,4.129894847E0,-2.251259887E-1,4.593778808E0
7.011639750E0,-2.052898651E0,9.370396972E-1,2.325455207E-1,2.268592887E0
7.021679750E0,-2.276311990E0,-5.531925598E0,2.399476279E0,6.445252789E0
7.031720750E0,-3.814675252E-1,-2.200351455E1,6.701664598E0,2.300461863E1
7.041761750E0,4.192954144E0,-5.973374710E1,1.325027365E1,6.132920314E1
7.051801750E0,8.196617546E0,-7.918904740E1,1.262892045E1,8.060756416E1
7.061842750E0,9.569836142E0,-4.619394389E1,-1.028412031E1,4.828276448E1
7.071882750E0,1.264408929E1,-2.349167771E1,-2.375039829E1,3.571852929E1
7.081923750E0,1.941916685E1,-1.508399907E1,-1.507237247E1,2.884107281E1
7.091964750E0,2.224810358E1,-1.471745349E1,-9.905475676E-2,2.667566985E1
7.102004750E0,1.603911368E1,-1.902037037E1,7.935386170E0,2.611509162E1
7.112045750E0,9.373339291E0,-1.822283706E1,1.094820497E1,2.323347739E1
7.122086750E0,7.239641767E0,-1.285212621E1,1.031042577E1,1.799706755E1
7.132126750E0,3.379182232E0,-6.778868310E0,7.226124759E0,1.046846728E1
7.142167750E0,-7.309019566E-5,-1.673016452E0,2.816217864E0,3.275678114E0
7.152208750E0,-2.914935528E0,1.818505118E0,-1.470792253E0,3.737250306E0
7.162248750E0,-5.589074530E0,3.983825553E0,-5.188872964E0,8.604244463E0
7.172289750E0,-8.577218075E0,5.486355908E0,-7.903224145E0,1.288913197E1
7.182329750E0,-1.096387667E1,7.055898862E0,-8.891915222E0,1.578158600E1
7.192370750E0,-1.203679280E1,8.627582483E0,-6.990122949E0,1.637624436E1
7.202411750E0,-1.146072628E1,1.035992362E1,-4.212362223E0,1.601312773E1
7.212451542E0,-9.576299654E0,1.236570803E1,-1.243976419E0,1.568960572E1
7.222492542E0,-7.523593084E0,1.422163299E1,2.451426451E0,1.627479000E1
7.232533542E0,-5.584018443E0,1.581457358E1,7.516103386E0,1.837862371E1
7.242573542E0,-3.838821622E0,1.686666075E1,9.028134881E0,1.951225297E1
7.252614542E0,-2.645383857E0,1.721108982E1,7.135526830E0,1.881848591E1
7.262655542E0,-1.119452945E0,1.619853684E1,4.304129595E0,1.679795530E1
7.272695542E0,8.725712210E-1,1.457045215E1,1.569533014E0,1.468069788E1
7.282736542E0,1.967062549E0,1.296486170E1,-1.957314509E-1,1.311469728E1
7.292776542E0,2.548667402E0,1.121483566E1,-8.220799291E-1,1.153013703E1
7.302817542E0,3.238304388E0,9.428345218E0,-6.049377286E-1,9.987304867E0
7.312858542E0,3.579218110E0,7.710064300E0,-5.479226983E-1,8.517987619E0
7.322898542E0,3.311089651E0,6.558494353E0,-4.873461288E-1,7.363061124E0
7.332939542E0,2.512659078E0,6.148669440E0,-8.124425483E-1,6.691760189E0
7.342980542E0,1.398452255E0,6.488440032E0,-1.450701220E0,6.794119280E0
7.353020542E0,-4.244873911E-2,7.253084516E0,-2.173873158E0,7.571972094E0
7.363061542E0,-1.374271972E0,7.659982313E0,-2.778895086E0,8.263547083E0
7.373102542E0,-2.268366355E0,7.589844961E0,-2.901787187E0,8.436326294E0
7.383142542E0,-2.731602221E0,7.609759408E0,-2.135130091E0,8.362348322E0
7.393183542E0,-2.786055294E0,7.909809279E0,-6.841376799E-1,8.413990213E0
7.403223542E0,-2.773385255E0,8.584545221E0,9.067604756E-1,9.066879121E0
7.413264542E0,-2.772289487E0,9.363299037E0,2.052125942E0,9.978385577E0
7.423305542E0,-3.233305603E0,9.933080381E0,2.589899043E0,1.076233841E1
7.433345542E0,-3.796403873E0,1.066136980E1,2.602808526E0,1.161258372E1
7.443386542E0,-4.158488024E0,1.133267343E1,2.370683420E0,1.230214004E1
7.453427542E0,-4.407275063E0,1.108099406E1,2.113216481E0,1.211107703E1
7.463467542E0,-3.522782539E0,9.855535777E0,2.366491551E0,1.073041772E1
7.473508542E0,-2.231380523E0,7.908909978E0,1.861635935E0,8.425888940E0
7.483549542E0,-2.301486739E0,3.413610930E0,-5.292151530E-1,4.150861292E0
7.493589542E0,-3.226965760E0,-2.268622609E0,3.206040037E-1,3.957618411E0
7.503630542E0,-2.890718700E0,-1.512645102E1,5.067405245E0,1.621247579E1
7.513671542E0,1.745135864E0,-5.288263000E1,9.918490409E0,5.383302432E1
7.523711542E0,1.016793848E1,-9.614979921E1,9.968396394E0,9.719845569E1
7.533752542E0,1.202138772E1,-6.302744157E1,-1.437789048E1,6.575481647E1
7.543792542E0,1.236987359E1,-2.247707353E1,-2.818165454E1,3.811086800E1
7.553833542E0,1.739253126E1,-1.061821150E1,-1.676023792E1,2.638469508E1
7.563874542E0,1.847626825E1,-1.318534617E1,-2.369762483E0,2.282195469E1
7.573914542E0,1.062270100E1,-2.135389123E1,6.160625242E0,2.463298095E1
7.583955542E0,5.263648912E0,-2.161308193E1,1.251152356E1,2.552194217E1
7.593996542E0,2.471288566E0,-1.543612073E1,1.290329519E1,2.027007936E1
7.604036542E0,6.270290941E-2,-7.421143434E0,4.784872463E0,8.830192864E0
7.614077542E0,-1.867846116E0,-1.280273010E0,-7.795683324E-1,2.394926905E0
7.624118542E0,-3.908965405E0,2.980038135E0,-2.749180706E0,5.631929721E0
7.634158542E0,-5.787783383E0,6.292830203E0,-2.906014724E0,9.030120156E0
7.644199542E0,-7.203383768E0,8.918054030E0,-1.600539629E0,1.157506598E1
7.654240542E0,-8.021507471E0,1.044688107E1,-8.965300044E-2,1.317155814E1
7.664280542E0,-7.549335451E0,1.188162524E1,8.380054057E-1,1.410204727E1
7.674321542E0,-5.720995317E0,1.346251705E1,1.903732964E0,1.475104579E1
7.684361542E0,-3.498370121E0,1.528058480E1,3.119605325E0,1.598332890E1
7.694402542E0,-1.851855882E0,1.692616202E1,3.987195303E0,1.748776879E1
7.704443542E0,-4.660511541E-1,1.791362109E1,4.184559882E0,1.840178159E1
7.714483542E0,1.005671391E0,1.782622860E1,3.720871003E0,1.823816554E1
7.724524542E0,1.965832879E0,1.632068518E1,2.367064578E0,1.660819853E1
7.734565542E0,2.238597157E0,1.396176168E1,6.680508202E-1,1.415586092E1
7.744605542E0,2.181265208E0,1.158831370E1,-1.395923334E-1,1.179264255E1
7.754646542E0,1.813188829E0,9.766994898E0,-2.347984529E-1,9.936647996E0
7.764687542E0,1.309340981E0,8.435260543E0,-3.713075495E-1,8.544346876E0
7.774727542E0,7.797042802E-1,7.639053959E0,-2.215007150E-1,7.681936391E0
7.784768542E0,5.607165523E-1,7.176066161E0,-2.907588283E-2,7.197997916E0
7.794808542E0,3.797709556E-1,6.972134575E0,-8.866304856E-2,6.983032840E0
7.804849542E0,-1.772953261E-1,7.183175790E0,-1.013016078E0,7.256421270E0
7.814890542E0,-1.218558134E0,7.446527367E0,-1.628621467E0,7.719330388E0
7.824930542E0,-2.715499866E0,7.617705774E0,-1.993140984E0,8.329225160E0
7.834971542E0,-3.879258041E0,7.632753584E0,-2.381027729E0,8.886892779E0
7.845012542E0,-4.354941606E0,7.857790695E0,-2.204742948E0,9.250474716E0
7.855052542E0,-4.147937601E0,8.359043257E0,-1.310187950E0,9.423140823E0
7.865093542E0,-3.631541335E0,8.913922387E0,-2.982699970E-1,9.629904973E0
7.875134542E0,-2.883285427E0,9.273143742E0,6.240557849E-1,9.731082948E0
7.885174542E0,-2.364068172E0,9.498737508E0,1.317846633E0,9.876818937E0
7.895215542E0,-2.175616651E0,9.969707340E0,1.168968921E0,1.027106911E1
7.905255542E0,-2.384612511E0,1.049077495E1,5.697245900E-1,1.077345450E1
7.915296542E0,-2.762072062E0,1.044190158E1,-3.020689148E-1,1.080525781E1
7.925337542E0,-2.965371856E0,9.384081795E0,-7.514028794E-1,9.870107784E0
7.935377542E0,-2.850526986E0,7.936526962E0,-5.595341356E-1,8.451452110E0
7.945418542E0,-2.716676326E0,6.080288007E0,-8.031758809E-1,6.707855396E0
7.955459542E0,-2.907147329E0,3.425068549E0,-6.522018691E-1,4.539599920E0
7.965499542E0,-3.164127195E0,-1.822151442E0,2.050316813E0,4.187569201E0
7.975540542E0,-2.191364811E0,-1.465574198E1,6.444591762E0,1.615938166E1
7.985581542E0,2.436323532E0,-5.075875288E1,1.236699559E1,5.230037520E1
7.995621542E0,7.239073418E0,-9.396203307E1,1.605444742E1,9.559818578E1
8.005662542E0,1.011357808E1,-6.478923572E1,-3.633128854E0,6.567441779E1
8.015703542E0,1.243105184E1,-2.510384161E1,-2.235605488E1,3.584029998E1
8.025743542E0,2.035941082E1,-1.179579980E1,-1.833531059E1,2.983002039E1
8.035784542E0,2.517702302E1,-1.269598801E1,-4.945291994E0,2.862737348E1
8.045824542E0,1.764039123E1,-2.218685517E1,2.938328776E0,2.849690721E1
8.055865542E0,1.053930801E1,-2.441950687E1,7.425463357E0,2.761388845E1
8.065906542E0,8.725085388E0,-1.763195837E1,9.821102693E0,2.198788596E1
8.075946542E0,5.119254845E0,-9.489341033E0,7.721680963E0,1.326192747E1
8.085987542E0,1.608609079E0,-3.239634629E0,3.395632496E0,4.961166773E0
8.096028542E0,-1.085207557E0,9.810171908E-1,-6.870302975E-1,1.616193305E0
8.106068542E0,-3.813339748E0,3.642815351E0,-3.943511925E0,6.585055051E0
8.116109542E0,-6.765581097E0,5.571107790E0,-5.787952952E0,1.050289146E1
8.126150542E0,-9.058856152E0,7.429357603E0,-5.363793590E0,1.288520511E1
8.136190542E0,-1.075900427E1,9.081954993E0,-1.886414680E0,1.420551441E1
8.146231542E0,-1.047331048E1,1.150592175E1,2.289831630E0,1.572640444E1
8.156271542E0,-9.201467403E0,1.426825869E1,5.444878099E0,1.782966365E1
8.166312542E0,-8.341570022E0,1.647998672E1,8.119184039E0,2.017654337E1
8.176353542E0,-6.996380639E0,1.859468372E1,7.697423204E0,2.130638234E1
8.186393542E0,-5.354434537E0,1.974505323E1,5.172266872E0,2.110188240E1
8.196434542E0,-3.226168784E0,1.940243446E1,3.138577201E0,1.991766289E1
8.206475542E0,-1.754202410E0,1.704013595E1,1.410238488E0,1.718814219E1
8.216515542E0,-9.062162460E-1,1.419093511E1,3.388379975E-1,1.422387705E1
8.226556542E0,-2.240793371E-1,1.189659528E1,1.405775893E-1,1.189953582E1
8.236597542E0,3.013406441E-1,9.988216116E0,6.064533269E-1,1.001114644E1
8.246637542E0,8.738466449E-1,8.303377179E0,5.584430087E-1,8.367887375E0
8.256678542E0,1.514192042E0,6.875633297E0,3.242538357E-1,7.047854377E0
8.266719542E0,2.313159682E0,5.956213599E0,4.946112943E-1,6.408730646E0
8.276759542E0,2.857153636E0,5.749437928E0,3.356114674E-1,6.428996690E0
8.286800542E0,2.999387741E0,6.207068506E0,-9.054121077E-1,6.952970398E0
8.296840542E0,2.337423288E0,7.064044619E0,-2.587796384E0,7.877878149E0
8.306881542E0,9.206296326E-1,8.037622982E0,-3.757442998E0,8.920163675E0
8.316922542E0,-5.705106385E-1,8.546535396E0,-3.544939978E0,9.270132098E0
8.326962542E0,-2.024188091E0,8.762858402E0,-2.270103124E0,9.275688276E0
8.337003542E0,-2.836617630E0,8.963914912E0,-7.189677894E-1,9.429479562E0
8.347044542E0,-3.120852537E0,9.075457567E0,3.998904938E-1,9.605392392E0
8.357084542E0,-3.169289117E0,9.141465030E0,1.117731525E0,9.739614991E0
8.367125542E0,-3.144801562E0,9.205597876E0,1.388373410E0,9.826514634E0
8.377166542E0,-2.953190644E0,9.519997984E0,1.439265820E0,1.007090774E1
8.387206542E0,-3.084628451E0,1.000114665E1,1.567609280E0,1.058278157E1
8.397247542E0,-2.987973391E0,1.068949374E1,1.527236595E0,1.120382582E1
8.407287542E0,-2.558258882E0,1.076769323E1,1.760004895E0,1.120649469E1
8.417328542E0,-1.383768435E0,9.820770571E0,2.476972352E0,1.022241369E1
8.427369542E0,-6.344725996E-2,7.684539449E0,2.502796580E0,8.082089013E0
8.437409542E0,1.208999544E-1,3.436812097E0,6.475382030E-1,3.499371360E0
8.447450542E0,-6.150291458E-1,-1.895661467E0,8.135003096E-1,2.152574273E0
8.457491542E0,-3.701299202E-1,-1.370882049E1,2.984754499E0,1.403486782E1
8.467531542E0,5.678381978E0,-4.917390016E1,7.121698165E0,5.001034957E1
8.477572542E0,1.575642419E1,-9.049455935E1,6.438026508E0,9.208136815E1
8.487613542E0,1.049465282E1,-5.926883732E1,-1.331928132E1,6.164686585E1
8.497653542E0,8.508633159E0,-2.135053493E1,-1.722662938E1,2.872279478E1
8.507694542E0,1.532948155E1,-1.267412644E1,-6.510873460E0,2.092887859E1
8.517735542E0,1.722772047E1,-1.724988727E1,3.301870054E0,2.460193711E1
8.527775542E0,1.205405027E1,-2.351901227E1,8.572573632E0,2.778368379E1
8.537816542E0,9.747884443E0,-2.193191422E1,1.086976808E1,2.634733327E1
8.547856542E0,6.984152942E0,-1.464361017E1,6.095240507E0,1.733106079E1
8.557897542E0,2.366104027E0,-7.928931429E0,-2.187768481E0,8.558781034E0
8.567938542E0,-8.439767285E-1,-3.361785888E0,-5.009126047E0,6.091407459E0
8.577978542E0,-3.841834692E0,-2.431237185E-1,-4.645161431E0,6.032936902E0
8.588019542E0,-6.341255089E0,2.124175333E0,-3.210582154E0,7.418320208E0
8.598060542E0,-7.764539300E0,4.855203942E0,-7.183281040E-1,9.185699272E0
8.608100542E0,-9.260903181E0,7.874835328E0,1.468661528E0,1.224476728E1
8.618141542E0,-1.010020082E1,1.031238809E1,2.158478608E0,1.459515107E1
8.628182542E0,-9.755891621E0,1.246726949E1,2.650559227E0,1.605103405E1
8.638222542E0,-8.504333117E0,1.440730782E1,3.059066763E0,1.700741279E1
8.648263542E0,-6.760074189E0,1.631708446E1,2.855669028E0,1.789135808E1
8.658304542E0,-4.857809461E0,1.755865300E1,2.197217581E0,1.835026902E1
8.668344542E0,-3.019136420E0,1.826950953E1,1.059599676E0,1.854758514E1
8.678385542E0,-1.647093699E0,1.811639551E1,5.863178551E-1,1.820056243E1
8.688425542E0,-1.052903883E0,1.645802692E1,6.253842723E-1,1.650352575E1
8.698466542E0,-6.276984541E-1,1.431318870E1,7.052127993E-1,1.434429159E1
8.708507542E0,1.582241938E-2,1.257277431E1,1.028969622E0,1.261481996E1
8.718547542E0,7.570162064E-1,1.096807497E1,1.091987404E0,1.104826587E1
8.728588542E0,1.457774743E0,9.524705577E0,1.060728189E0,9.693826274E0
8.738629542E0,1.925160524E0,8.182194804E0,6.148136759E-1,8.428081081E0
8.748669542E0,2.021821138E0,6.996277143E0,6.759848158E-2,7.282871970E0
8.758710542E0,1.933074877E0,6.237783930E0,-1.345637280E-1,6.531832380E0
8.768751542E0,1.641270457E0,6.124918635E0,-2.176275194E-1,6.344742606E0
8.778791542E0,9.675763424E-1,6.476927449E0,-6.253614682E-1,6.578591804E0
8.788832542E0,-1.629608770E-1,6.834073042E0,-1.341460029E0,6.966392582E0
8.798872542E0,-1.420556192E0,7.134573149E0,-1.918498937E0,7.523347133E0
8.808913542E0,-2.339296736E0,7.352247446E0,-2.136664985E0,8.005822193E0
8.818954542E0,-3.042407753E0,7.635930376E0,-2.047759241E0,8.470950097E0
8.828994542E0,-3.588059685E0,8.052559694E0,-1.628213332E0,8.964874153E0
8.839035542E0,-3.874503670E0,8.609844369E0,-8.962817536E-1,9.483908463E0
8.849076542E0,-3.701986543E0,9.364590687E0,-5.101458114E-2,1.006989899E1
8.859116542E0,-3.566530237E0,9.967996445E0,8.321826752E-1,1.061949241E1
8.869157542E0,-3.595908988E0,1.062625610E1,1.684278774E0,1.134392680E1
8.879198542E0,-3.586857498E0,1.109962212E1,2.072116402E0,1.184739737E1
8.889238542E0,-3.086187903E0,1.060812623E1,2.154390235E0,1.125603372E1
8.899279542E0,-1.756568925E0,9.468469396E0,2.867742358E0,1.004795468E1
8.909320542E0,-3.790577415E-1,6.655490305E0,2.349563861E0,7.068216629E0
8.919360542E0,-1.286231323E0,1.036758113E0,1.922154836E-1,1.663191268E0
8.929401542E0,-2.798873852E0,-7.196172397E0,2.115150740E0,8.005776331E0
8.939441542E0,-2.994071160E0,-2.710201763E1,5.793800168E0,2.787565142E1
8.949482542E0,4.519577272E0,-7.238316905E1,1.155394493E1,7.343870494E1
8.959523542E0,1.401379137E1,-8.806846069E1,2.446681436E0,8.921001271E1
8.969563542E0,1.253648181E1,-4.335004530E1,-2.337583969E1,5.082144907E1
8.979604542E0,1.486578917E1,-1.747001389E1,-2.370468476E1,3.298643892E1
8.989645542E0,2.154611026E1,-1.155231239E1,-6.879712315E0,2.539726817E1
8.999685542E0,1.950383687E1,-1.818850688E1,4.249714236E0,2.700521258E1
9.009726542E0,1.004143046E1,-2.375657061E1,8.751537023E0,2.723590228E1
9.019767542E0,6.923058894E0,-1.949726110E1,1.107768922E1,2.346885453E1
9.029807542E0,3.709933786E0,-1.204893396E1,8.401707466E0,1.515021804E1
9.039848542E0,1.776017202E-1,-5.579565203E0,3.048773324E0,6.360668912E0
9.049889542E0,-2.133942668E0,-1.063026729E0,-1.251382502E0,2.692525822E0
9.059929542E0,-4.340269480E0,1.969235228E0,-3.248259273E0,5.767756483E0
9.069970542E0,-6.517892457E0,4.461730767E0,-3.378958576E0,8.591118937E0
9.080011542E0,-8.140085496E0,7.064887787E0,-1.917372179E0,1.094760007E1
9.090051542E0,-9.365479463E0,9.523227986E0,1.325476080E0,1.342240529E1
9.100092542E0,-1.010983586E1,1.153690848E1,3.129235690E0,1.565570677E1
9.110132542E0,-9.110851933E0,1.363583671E1,3.789248343E0,1.683157951E1
9.120173542E0,-7.254409495E0,1.545153049E1,3.545503650E0,1.743407146E1
9.130214542E0,-4.707150688E0,1.690408995E1,2.827888906E0,1.777364567E1
9.140254542E0,-3.070282892E0,1.782845289E1,2.236850009E0,1.822865511E1
9.150295542E0,-2.217718212E0,1.830339765E1,1.897071816E0,1.853460335E1
9.160336542E0,-1.017067614E0,1.742761105E1,1.489102224E0,1.752065863E1
9.170376542E0,-2.867948180E-1,1.513530020E1,7.450089490E-1,1.515633867E1
9.180417542E0,-6.727820948E-2,1.262171785E1,3.606328726E-1,1.262704810E1
9.190458542E0,3.950957769E-1,1.066142477E1,5.571928283E-2,1.066888857E1
9.200498542E0,1.047661416E0,9.163599665E0,-4.990423143E-2,9.223429064E0
9.210539000E0,1.698520399E0,7.913764921E0,6.801948111E-2,8.094274113E0
9.220579000E0,2.003195125E0,7.022490796E0,2.656986304E-1,7.307445754E0
9.230620000E0,2.066685801E0,6.705830739E0,3.382795519E-1,7.025225203E0
9.240661000E0,1.823703146E0,6.916219990E0,-1.300250826E-1,7.153803089E0
9.250701000E0,1.102209214E0,7.380432780E0,-1.033194820E0,7.533468305E0
9.260742000E0,-9.942649350E-2,7.694697817E0,-1.876325895E0,7.920786513E0
9.270783000E0,-1.206817802E0,7.774940327E0,-2.313987647E0,8.201258752E0
9.280823000E0,-1.887708815E0,7.855495078E0,-2.375288687E0,8.421059544E0
9.290864000E0,-2.221644325E0,8.085315796E0,-1.951411160E0,8.609067345E0
9.300905000E0,-2.405538965E0,8.511438653E0,-1.171267462E0,8.922055432E0
9.310945000E0,-2.579497431E0,8.948690516E0,-4.173982634E-1,9.322397238E0
9.320986000E0,-2.773318889E0,9.252381449E0,9.641938012E-2,9.659562973E0
9.331027000E0,-2.970616516E0,9.691523132E0,3.412586717E-1,1.014231929E1
9.341067000E0,-3.371934316E0,1.012161566E1,7.998184097E-1,1.069844634E1
9.351108000E0,-4.133278631E0,1.019370715E1,1.281236047E0,1.107416921E1
9.361148000E0,-4.309404075E0,9.323673626E0,1.939378760E0,1.045289641E1
9.371189000E0,-3.499218552E0,8.342245960E0,2.679093640E0,9.434783562E0
9.381230000E0,-2.294366584E0,6.556462446E0,1.540096961E0,7.114999401E0
9.391270000E0,-2.309760549E0,3.461454018E0,-4.853984578E-1,4.189542860E0
9.401311000E0,-2.683645697E0,-1.276771113E0,9.022031558E-1,3.105812170E0
9.411352000E0,-2.281254934E0,-1.220675265E1,5.000482693E0,1.338707442E1
9.421392000E0,2.875289360E0,-4.413543863E1,1.054011141E1,4.546755086E1
9.431433000E0,9.699913886E0,-9.044998953E1,1.387129824E1,9.202011655E1
9.441474000E0,8.217271081E0,-6.692169655E1,-6.690304043E0,6.775542179E1
9.451514000E0,5.601664170E0,-2.630709334E1,-2.672361156E1,3.791560650E1
9.461555000E0,1.134695350E1,-1.305437087E1,-2.021634817E1,2.660583932E1
9.471596000E0,1.930151152E1,-1.413182210E1,-4.326483500E0,2.430998154E1
9.481636000E0,1.690548042E1,-2.165921412E1,7.078811762E0,2.837298716E1
9.491677000E0,9.271604170E0,-2.317077550E1,1.203382709E1,2.770668648E1
9.501718000E0,7.534437915E0,-1.713519764E1,1.085512314E1,2.163830981E1
9.511758000E0,4.862238727E0,-9.232733050E0,4.972744671E0,1.155910527E1
9.521799000E0,1.341073966E0,-3.032271897E0,-1.117036875E0,3.498703134E0
9.531839000E0,-1.194182408E0,1.112331036E0,-3.536083785E0,3.894514154E0
9.541880000E0,-3.617164201E0,3.626890460E0,-4.243284638E0,6.651591974E0
9.551921000E0,-5.878155609E0,5.694779325E0,-4.265176613E0,9.229027927E0
9.561961000E0,-7.858697013E0,7.967130119E0,-2.766417128E0,1.152767734E1
9.572002000E0,-9.442218906E0,9.794186205E0,5.431946762E-1,1.361530910E1
9.582043000E0,-9.176992713E0,1.179283761E1,3.796024096E0,1.541745806E1
9.592083000E0,-6.973903942E0,1.391163467E1,4.963525951E0,1.633418211E1
9.602124000E0,-4.744122047E0,1.539139421E1,6.377302004E0,1.732257748E1
9.612165000E0,-2.883347408E0,1.665616918E1,5.453781070E0,1.776190845E1
9.622205000E0,-1.568938645E0,1.762056566E1,3.581410232E0,1.804916624E1
9.632246000E0,9.014798552E-2,1.753057701E1,2.613529980E0,1.772455347E1
9.642286000E0,1.572089125E0,1.637713654E1,1.575644524E0,1.652769558E1
9.652327000E0,1.993746610E0,1.481101011E1,2.286086086E-1,1.494634765E1
9.662368000E0,1.814054217E0,1.331680210E1,-9.310427928E-1,1.347200251E1
9.672408000E0,7.504969995E-1,1.158943870E1,-1.470200515E0,1.170640101E1
9.682449000E0,-5.188725615E-1,9.866132101E0,-1.176032358E0,9.949514736E0
9.692490000E0,-7.951241188E-1,8.464457445E0,-2.350568998E-1,8.504969956E0
9.702530000E0,-6.739139695E-1,7.392798471E0,4.320332229E-1,7.436012506E0
9.712571000E0,-3.804781763E-1,6.789876863E0,5.364130390E-1,6.821651589E0
9.722612000E0,-1.626546291E-1,6.539055870E0,4.488907456E-2,6.541232546E0
9.732652000E0,-3.222923872E-1,6.750116966E0,-3.236539114E-1,6.765552696E0
9.742693000E0,-8.089083450E-1,7.153591803E0,-5.787410331E-1,7.222406079E0
9.752734000E0,-1.560997834E0,7.523118875E0,-1.022945235E0,7.751157901E0
9.762774000E0,-2.281004819E0,7.873997422E0,-1.290278181E0,8.298652673E0
9.772815000E0,-2.763855463E0,8.365295684E0,-1.092036520E0,8.877477832E0
9.782855000E0,-2.847775286E0,8.933245681E0,-7.473642075E-1,9.405915997E0
9.792896000E0,-2.726055552E0,9.304672514E0,-5.064519060E-1,9.709006282E0
9.802937000E0,-2.558052183E0,9.696514315E0,7.817550084E-2,1.002856581E1
9.812977000E0,-2.215229344E0,1.019431527E1,7.986121291E-1,1.046274754E1
9.823018000E0,-2.002999097E0,1.028822740E1,1.440318319E0,1.057989344E1
9.833059000E0,-1.405701633E0,9.591545100E0,2.070923570E0,9.912742250E0
9.843099000E0,-1.711776768E-1,7.865659878E0,2.257652063E0,8.185041231E0
9.853140000E0,5.800294670E-1,5.610237358E0,1.725132101E0,5.898074106E0
9.863181000E0,2.269941741E-1,2.799343969E0,1.066432148E0,3.004185503E0
9.873221000E0,-4.794269523E-1,-1.894165750E0,2.442522311E0,3.127879366E0
9.883262000E0,9.359945074E-2,-1.342886750E1,5.230009296E0,1.441167028E1
9.893303000E0,4.236380246E0,-4.519102010E1,1.003832442E1,4.648594597E1
9.903343000E0,8.119687484E0,-8.589077983E1,1.311198700E1,8.726442338E1
9.913384000E0,5.641856761E0,-6.375079360E1,-5.851177726E0,6.426686949E1
9.923425000E0,5.748636274E0,-2.582714686E1,-2.449963478E1,3.605995616E1
9.933465000E0,1.382039706E1,-1.264989441E1,-1.785281940E1,2.587945834E1
9.943506000E0,2.078600731E1,-1.258272393E1,-3.030583806E0,2.448606705E1
9.953546000E0,1.686555212E1,-1.929867445E1,5.862982085E0,2.629182844E1
9.963587000E0,1.028971493E1,-2.078185111E1,8.407870431E0,2.466689794E1
9.973628000E0,8.731753553E0,-1.520616378E1,8.041689720E0,1.929092301E1
9.983668000E0,5.141215818E0,-8.185696701E0,5.345765455E0,1.104603725E1
9.993709000E0,1.122415291E0,-2.354921665E0,1.227491949E0,2.883090116E0
1.000375000E1,-1.670096791E0,1.566096021E0,-1.667038844E0,2.832119091E0
1.001379000E1,-4.424424947E0,4.033716921E0,-3.317199115E0,6.844721928E0
1.002383100E1,-7.084426843E0,5.911295874E0,-4.315797129E0,1.018619789E1
1.003387200E1,-9.576489104E0,8.131135747E0,-3.796700034E0,1.312400256E1
1.004391200E1,-1.175962542E1,9.904420838E0,-1.914901146E0,1.549364994E1
1.005395300E1,-1.199736736E1,1.160795917E1,-3.350571513E-1,1.669711960E1
1.006399400E1,-1.028815372E1,1.367920317E1,2.117516524E0,1.724675571E1
1.007403400E1,-7.887010401E0,1.521744422E1,4.173167167E0,1.764060277E1
1.008407500E1,-4.773877943E0,1.650590392E1,4.684474601E0,1.780952209E1
1.009411500E1,-2.621696494E0,1.728656334E1,4.184791431E0,1.797807120E1
1.010415600E1,-1.243216866E0,1.697489272E1,3.371796906E0,1.735112634E1
1.011419700E1,-2.081597078E-1,1.568337025E1,2.036833134E0,1.581645099E1
1.012423700E1,4.069391660E-2,1.384736441E1,6.653406358E-1,1.386339913E1
1.013427800E1,1.870663159E-2,1.210498303E1,-2.020704174E-1,1.210668396E1
1.014431900E1,1.217703125E-1,1.072512784E1,-3.303758705E-1,1.073090599E1
1.015435900E1,1.548838987E-1,9.375140818E0,-3.798889232E-1,9.384112636E0
1.016440000E1,3.477276291E-1,8.298232214E0,-2.427470664E-2,8.305550050E0
1.017444100E1,7.267020477E-1,7.656078127E0,3.131300013E-2,7.690553209E0
1.018448100E1,1.117059241E0,7.450439154E0,-3.075576961E-1,7.539990495E0
1.019452200E1,1.384027905E0,7.617692910E0,-7.723785961E-1,7.780832039E0
1.020456300E1,1.220070662E0,8.141668922E0,-1.506153290E0,8.369219975E0
1.021460325E1,6.646429168E-1,8.605504566E0,-2.023147725E0,8.865076749E0
1.022464425E1,-3.525881271E-1,8.508652455E0,-1.943008127E0,8.734801977E0
1.023468425E1,-1.240939229E0,8.194123124E0,-1.308811516E0,8.390266475E0
1.024472525E1,-1.769055946E0,8.240049495E0,-4.229091911E-1,8.438413761E0
1.025476625E1,-2.170338516E0,8.482485580E0,3.309816420E-1,8.761990627E0
1.026480625E1,-2.441615847E0,8.874324458E0,8.027174592E-1,9.239019312E0
1.027484725E1,-2.712038607E0,9.202478387E0,1.085286494E0,9.654978438E0
1.028488825E1,-3.020655234E0,9.364292479E0,1.136282401E0,9.904820511E0
1.029492825E1,-3.287070166E0,9.215139363E0,7.942067637E-1,9.816027106E0
1.030496925E1,-2.499595229E0,8.595635635E0,1.203913051E0,9.032294001E0
1.031501025E1,-7.630430777E-1,7.369020769E0,2.165489420E0,7.718422524E0
1.032505025E1,-1.995008585E-1,3.334290526E0,9.889044269E-1,3.483565109E0
1.033509125E1,-1.406483698E0,-2.392561362E0,6.794680935E-1,2.857310475E0
1.034513225E1,-1.316276363E0,-1.182818870E1,3.850171067E0,1.250849506E1
1.035517225E1,2.219433346E0,-3.503164195E1,7.351661555E0,3.586347375E1
1.036521325E1,1.010727361E1,-7.126897509E1,8.999970013E0,7.254256165E1
1.037525325E1,1.132466040E1,-6.623571525E1,-5.148528346E0,6.739380722E1
1.038529425E1,8.084635180E0,-2.947868626E1,-1.977300058E1,3.640502467E1
1.039533525E1,1.145303252E1,-1.346666156E1,-1.452931348E1,2.288282932E1
1.040537525E1,1.469539078E1,-1.348502298E1,-6.442438817E-1,1.995533526E1
1.041541625E1,1.054890212E1,-2.184010358E1,4.463822901E0,2.466161340E1
1.042545725E1,8.047980155E0,-2.461560611E1,8.027918358E0,2.711356712E1
1.043549725E1,7.942524451E0,-2.042045108E1,9.863983834E0,2.402866401E1
1.044553825E1,5.121401943E0,-1.262554894E1,5.072588217E0,1.453837663E1
1.045557925E1,1.942543858E0,-6.086211237E0,-2.102205589E0,6.725675594E0
1.046561925E1,-8.658165175E-1,-1.613112313E0,-5.648499783E0,5.937787414E0
1.047566025E1,-3.710058331E0,1.146053098E0,-6.763155087E0,7.798604828E0
1.048570125E1,-5.974502521E0,2.970994831E0,-6.692549374E0,9.450487171E0
1.049574125E1,-7.618707402E0,5.382884749E0,-4.635700636E0,1.041680714E1
1.050578225E1,-8.785415205E0,8.610558314E0,1.938960282E-1,1.230296023E1
1.051582325E1,-8.724567910E0,1.123132832E1,3.817572255E0,1.472530743E1
1.052586325E1,-7.370462108E0,1.355485628E1,6.358602608E0,1.668800970E1
1.053590425E1,-5.461120495E0,1.597462591E1,7.354531953E0,1.841471287E1
1.054594425E1,-3.202967910E0,1.780763446E1,5.495026159E0,1.890941990E1
1.055598525E1,-1.525575547E0,1.945438580E1,3.480983133E0,1.982215304E1
1.056602625E1,-2.279064129E-1,1.992479196E1,1.738629813E0,2.000180266E1
1.057606625E1,6.745681268E-1,1.866556718E1,7.072055304E-1,1.869113640E1
1.058610725E1,5.094857338E-1,1.609419445E1,2.110201657E-1,1.610363935E1
1.059614825E1,-1.334933951E-1,1.332496715E1,-2.896827579E-2,1.332566731E1
1.060618825E1,-8.661884004E-1,1.095044094E1,6.255936027E-2,1.098482375E1
1.061622925E1,-1.446487570E0,9.020170389E0,3.209080589E-1,9.141049290E0
1.062627025E1,-1.492213820E0,7.228287059E0,7.535312659E-1,7.419073073E0
1.063631025E1,-9.389178228E-1,6.050608125E0,1.016361855E0,6.206804072E0
1.064635125E1,-1.444000603E-1,5.783919543E0,6.643360841E-1,5.823737553E0
1.065639225E1,6.598496617E-1,6.284911319E0,-9.206497690E-2,6.320125618E0
1.066643225E1,5.751106431E-1,6.883291980E0,-1.120198465E0,6.997521371E0
1.067647325E1,-4.457449436E-2,7.650803354E0,-1.769441131E0,7.852878502E0
1.068651325E1,-7.193863039E-1,8.037080360E0,-2.006867323E0,8.315028191E0
1.069655425E1,-1.436682667E0,8.134299676E0,-1.987035322E0,8.495834136E0
1.070659525E1,-1.981719910E0,8.487925245E0,-1.510748616E0,8.846154540E0
1.071663525E1,-2.257374613E0,9.052550515E0,-7.083726346E-1,9.356612782E0
1.072667625E1,-2.323395671E0,9.857240825E0,4.438656120E-1,1.013707950E1
1.073671725E1,-2.087569424E0,1.069949599E1,1.305669222E0,1.097915901E1
1.074675725E1,-1.859174842E0,1.114546196E1,1.537062256E0,1.140352637E1
1.075679825E1,-1.668911561E0,1.100776704E1,1.314159964E0,1.121085267E1
1.076683925E1,-1.193290561E0,9.645047708E0,5.981409983E-1,9.736973878E0
1.077687925E1,-7.581780481E-1,7.578765657E0,8.951736331E-2,7.617121254E0
1.078692025E1,-7.544272055E-1,5.721299956E0,-1.420996561E-1,5.772575328E0
1.079696125E1,-1.414553294E0,3.129132194E0,-4.198605259E-1,3.459582658E0
1.080700125E1,-2.587453737E0,-1.685210820E0,6.686051363E-1,3.159412157E0
1.081704225E1,-3.573568531E0,-1.188326830E1,3.678339525E0,1.294266739E1
1.082708325E1,-1.946180826E0,-3.715479402E1,8.042320050E0,3.806501347E1
1.083712325E1,3.624279678E-2,-7.739132329E1,1.375771724E1,7.860466282E1
1.084716425E1,1.268544957E0,-7.169544293E1,2.097307377E0,7.173732949E1
1.085720525E1,6.759460816E0,-3.324526611E1,-1.957619968E1,3.916842636E1
1.086724525E1,1.503383113E1,-1.902219938E1,-1.708826438E1,2.966258464E1
1.087728625E1,2.148737381E1,-1.480442030E1,-5.062885348E0,2.658027279E1
1.088732725E1,1.787599309E1,-1.773805493E1,2.443905762E0,2.530143073E1
1.089736725E1,1.060001965E1,-2.003160188E1,4.220855888E0,2.305300663E1
1.090740825E1,8.695539408E0,-1.706719686E1,4.981128409E0,1.979174713E1
1.091744825E1,5.677725921E0,-1.137984643E1,3.748414897E0,1.325851012E1
1.092748925E1,1.516551686E0,-5.822012984E0,1.386720986E0,6.174039139E0
1.093753025E1,-1.808939219E0,-1.829339424E0,-2.486168268E0,3.577677526E0
1.094757025E1,-4.327203000E0,1.192112786E0,-3.706023753E0,5.820689886E0
1.095761125E1,-6.098223757E0,4.065882454E0,-2.455512486E0,7.729765500E0
1.096765225E1,-7.371023440E0,7.143908229E0,2.267889369E-1,1.026736795E1
1.097769225E1,-7.672981258E0,1.001984254E1,8.188464189E-1,1.264683341E1
1.098773325E1,-7.506656039E0,1.258776423E1,8.706273872E-2,1.465637313E1
1.099777425E1,-6.645359420E0,1.488890789E1,1.215187068E0,1.634983362E1
1.100781425E1,-6.174612951E0,1.775152224E1,2.472151322E0,1.895663259E1
1.101785525E1,-6.620127515E0,2.046821581E1,3.893823456E0,2.186174302E1
1.102789625E1,-6.629294195E0,2.282389294E1,4.732910596E0,2.423382085E1
1.103793625E1,-4.451603975E0,2.260871774E1,4.303216259E0,2.344117245E1
1.104797725E1,-2.839786528E0,1.936066429E1,2.355368392E0,1.970907074E1
1.105801825E1,-1.696876308E0,1.628586150E1,1.736531832E0,1.646585002E1
1.106805825E1,-8.517047010E-1,1.323748111E1,1.347330633E0,1.333310192E1
1.107809925E1,-5.392391445E-1,1.045275050E1,9.368748057E-1,1.050849686E1
1.108813925E1,1.935542402E-1,7.498540104E0,8.192767739E-1,7.545646518E0
1.109818025E1,1.571046712E0,5.046494433E0,1.452793939E0,5.481414421E0
1.110822125E1,2.843616162E0,3.631271778E0,2.197872469E0,5.109102758E0
1.111826125E1,3.954586844E0,3.014042033E0,1.971115692E0,5.348691761E0
1.112830225E1,4.051305053E0,3.664151841E0,3.449167264E-1,5.473394641E0
1.113834325E1,3.215803133E0,5.284308879E0,-1.775467272E0,6.435650251E0
1.114838325E1,1.616784510E0,6.606229852E0,-3.536428771E0,7.665676322E0
1.115842425E1,1.713611332E-1,7.370819957E0,-4.161580324E0,8.466233063E0
1.116846525E1,-7.267198087E-1,8.194037170E0,-3.794375181E0,9.059119705E0
1.117850525E1,-1.083492130E0,9.153278160E0,-2.726440884E0,9.611968381E0
1.118854625E1,-1.069099501E0,1.004399738E1,-1.431164503E0,1.020162188E1
1.119858725E1,-6.589844200E-1,1.072971440E1,-9.034006655E-2,1.075031129E1
1.120862725E1,-4.138368340E-1,1.111088035E1,1.190729334E0,1.118216256E1
1.121866792E1,-4.551744559E-1,1.176652747E1,2.343417853E0,1.200624670E1
1.122870792E1,-7.942150229E-1,1.209552808E1,3.170491889E0,1.252934938E1
1.123874892E1,-1.198842200E0,1.080439153E1,3.306269499E0,1.136237285E1
1.124878992E1,-9.772691256E-1,8.698686379E0,3.495612867E0,9.425577382E0
1.125882992E1,-1.352144500E0,5.214186146E0,2.882332331E0,6.109326606E0
1.126887092E1,-2.478512508E0,4.247078311E-1,2.290001199E0,3.401103716E0
1.127891192E1,-3.094554099E0,-6.526410096E0,4.432921536E0,8.474732277E0
1.128895192E1,-1.828963886E0,-2.377998286E1,7.030324895E0,2.486479765E1
1.129899292E1,2.740855732E0,-6.637848554E1,9.972211118E0,6.717931696E1
1.130903392E1,5.429408705E0,-8.873300377E1,9.099717665E-1,8.890361346E1
1.131907392E1,5.718485107E0,-4.564137265E1,-2.156371038E1,5.080186586E1
1.132911492E1,1.074510193E1,-1.750051764E1,-1.767963657E1,2.709787598E1
1.133915592E1,1.674679049E1,-1.055865878E1,-2.807600822E0,1.999557175E1
1.134919592E1,1.798193294E1,-1.231962613E1,8.369807396E0,2.334902088E1
1.135923692E1,1.183513870E1,-1.659730994E1,1.015973249E1,2.277633354E1
1.136927792E1,8.295658854E0,-1.511999921E1,9.007979529E0,1.945703027E1
1.137931792E1,6.540642804E0,-9.693203037E0,4.820373248E0,1.264809043E1
1.138935892E1,2.993424751E0,-4.122764753E0,-1.440052271E0,5.294481229E0
1.139939992E1,-4.826611935E-1,9.613407254E-2,-5.454157630E0,5.476316193E0
1.140943992E1,-3.426587656E0,2.759689322E0,-6.933064649E0,8.211258950E0
1.141948092E1,-6.239348645E0,4.849727440E0,-6.669248804E0,1.034060962E1
1.142952092E1,-8.294224532E0,7.124357479E0,-4.367341504E0,1.177388219E1
1.143956192E1,-9.049073761E0,9.950305109E0,-8.624737374E-1,1.347732053E1
1.144960292E1,-8.128927839E0,1.274723184E1,1.937163835E0,1.524217803E1
1.145964292E1,-6.373853316E0,1.502955097E1,4.516311017E0,1.693843185E1
1.146968392E1,-4.325612265E0,1.666168310E1,5.917845340E0,1.820284315E1
1.147972492E1,-2.903441364E0,1.797540862E1,4.925110914E0,1.886271466E1
1.148976492E1,-2.139423702E0,1.849589150E1,3.297160707E0,1.890889751E1
1.149980592E1,-1.373547794E0,1.755618080E1,1.725485272E0,1.769416336E1
1.150984692E1,-5.424848608E-1,1.507395940E1,3.636243447E-1,1.508810009E1
1.151988692E1,-6.670651259E-1,1.243283407E1,6.262605507E-2,1.245087390E1
1.152992792E1,-5.640116776E-1,1.048239238E1,1.440157703E-1,1.049854274E1
1.153996892E1,-1.805953485E-1,9.125849456E0,2.063669515E-1,9.129968800E0
1.155000892E1,8.415195823E-2,7.846819564E0,1.750422478E-2,7.847290311E0
1.156004992E1,6.746744730E-1,6.938464553E0,-3.910967748E-2,6.971298700E0
1.157009092E1,1.287303410E0,6.600739317E0,-2.810089982E-1,6.730963947E0
1.158013092E1,1.597713962E0,6.676695818E0,-5.831802392E-1,6.889924248E0
1.159017192E1,1.583562385E0,7.135819775E0,-1.059241827E0,7.385769218E0
1.160021192E1,8.804833809E-1,8.033176174E0,-1.800300981E0,8.279387299E0
1.161025292E1,-5.540912184E-1,8.582126813E0,-2.164552111E0,8.868213098E0
1.162029392E1,-1.905214064E0,8.602371043E0,-1.903700219E0,9.014139045E0
1.163033392E1,-2.825440677E0,8.792380993E0,-1.186960219E0,9.311173563E0
1.164037492E1,-3.332971686E0,9.153103913E0,-3.712806523E-1,9.748120887E0
1.165041592E1,-3.518098627E0,9.545260295E0,4.581708616E-1,1.018326728E1
1.166045592E1,-3.350680271E0,9.969788032E0,1.240748756E0,1.059071240E1
1.167049692E1,-2.968720849E0,1.045846557E1,1.926824788E0,1.104108053E1
1.168053792E1,-2.897212910E0,1.046675458E1,2.197536839E0,1.108043150E1
1.169057792E1,-2.301708202E0,9.851428692E0,2.421146060E0,1.040242549E1
1.170061892E1,-1.014026770E0,9.011158075E0,3.008008876E0,9.553917393E0
1.171065992E1,-1.804168622E-1,7.020036135E0,3.184148061E0,7.710528935E0
1.172069992E1,-1.210160801E0,1.800872839E0,1.499071142E0,2.637204284E0
1.173074092E1,-3.066497989E0,-5.122963734E0,2.491189857E0,6.469481760E0
1.174078192E1,-3.880684177E0,-1.824200774E1,7.149409289E0,1.997359780E1
1.175082192E1,6.240659445E-1,-5.163327181E1,1.152476733E1,5.290750871E1
1.176086292E1,1.183135906E1,-9.310679592E1,1.337034739E1,9.480307323E1
1.177090392E1,2.018717992E1,-6.154322177E1,-1.110219958E1,6.571414775E1
1.178094392E1,1.641970427E1,-2.264310405E1,-2.595937346E1,3.816026624E1
1.179098492E1,1.796713948E1,-1.252490901E1,-1.948946793E1,2.931775583E1
1.180102492E1,2.157479436E1,-1.418783843E1,-7.868104599E0,2.699395452E1
1.181106592E1,1.798300181E1,-1.886550336E1,1.731049483E0,2.612072173E1
1.182110692E1,1.311189812E1,-1.873864802E1,6.041969449E0,2.365510931E1
1.183114692E1,1.020208388E1,-1.347466289E1,5.923271556E0,1.790905361E1
1.184118792E1,5.121980817E0,-6.894633240E0,3.184891827E0,9.160468926E0
1.185122892E1,2.941033991E-1,-1.871096145E0,6.872384584E-1,2.014893122E0
1.186126892E1,-3.712327928E0,1.370519521E0,-9.131105518E-1,4.061215740E0
1.187130992E1,-7.873284647E0,3.461435307E0,-1.971703337E0,8.823704413E0
1.188135092E1,-1.175383434E1,5.715734577E0,-2.695766391E0,1.334501404E1
1.189139092E1,-1.508043811E1,8.482489089E0,-2.092177030E0,1.742840898E1
1.190143192E1,-1.693432473E1,1.203597185E1,5.801034343E-1,2.078394795E1
1.191147292E1,-1.870709176E1,1.609121003E1,4.722316611E0,2.512334764E1
1.192151292E1,-2.040916595E1,1.998314951E1,7.993021005E0,2.966055806E1
1.193155392E1,-1.666773146E1,2.151741680E1,7.784176004E0,2.830911327E1
1.194159392E1,-9.376612562E0,1.992909317E1,4.243301010E0,2.242978425E1
1.195163492E1,-5.427055786E0,1.743010313E1,2.055600357E0,1.837081714E1
1.196167592E1,-4.162376715E0,1.471750144E1,1.584214203E0,1.537660441E1
1.197171592E1,-2.981144428E0,1.234210633E1,1.537225978E0,1.278975663E1
1.198175692E1,-1.664374998E0,1.023359101E1,1.048390564E0,1.042092376E1
1.199179792E1,-2.463123514E-1,8.524252242E0,7.455094707E-1,8.560334715E0
1.200183792E1,1.216727517E0,7.130325732E0,5.253921338E-1,7.252448399E0
1.201187892E1,2.676955898E0,6.326549342E0,5.275779327E-1,6.889822779E0
1.202191992E1,4.155051323E0,6.242352945E0,5.296496012E-1,7.517443081E0
1.203195992E1,5.097090390E0,6.396353402E0,-6.457051009E-1,8.204303893E0
1.204200092E1,5.439596894E0,7.030479262E0,-2.936614373E0,9.361653539E0
1.205204192E1,4.996265096E0,8.112149838E0,-5.385775028E0,1.094423193E1
1.206208192E1,4.006086780E0,8.834975621E0,-6.538284037E0,1.169849066E1
1.207212292E1,2.624747279E0,9.049747360E0,-6.120110469E0,1.123579004E1
1.208216392E1,-9.980407745E-2,8.826555630E0,-4.238330877E0,9.791909608E0
1.209220392E1,-2.058558171E0,8.528310210E0,-1.930832469E0,8.983198250E0
1.210224492E1,-3.204350191E0,8.337914928E0,3.196397613E-1,8.938168440E0
1.211228492E1,-3.906305507E0,8.372613475E0,2.426714948E0,9.552425061E0
1.212232592E1,-4.746517944E0,8.286664082E0,4.103843163E0,1.039421776E1
1.213236692E1,-5.945010334E0,7.856156398E0,4.664722706E0,1.090054949E1
1.214240692E1,-5.854957951E0,7.344477081E0,4.763574564E0,1.053154874E1
1.215244792E1,-3.751960356E0,6.050171923E0,4.562580035E0,8.455703601E0
1.216248892E1,-2.716451793E0,2.131767942E0,2.544058626E0,4.289030100E0
1.217252892E1,-2.941457914E0,-3.127044738E0,2.564765371E0,5.000860412E0
1.218256992E1,-3.114208345E0,-1.409800882E1,5.395580809E0,1.541312553E1
1.219261092E1,-9.202706136E-1,-4.120113274E1,8.726798623E0,4.212525669E1
1.220265092E1,6.295966650E0,-7.325869838E1,8.559658302E0,7.402529186E1
1.221269250E1,1.204797735E1,-5.746324987E1,-1.092459742E1,5.972039578E1
1.222273350E1,1.214314897E1,-2.785767903E1,-2.525943835E1,3.951639627E1
1.223277350E1,1.514674788E1,-1.561538584E1,-1.550789881E1,2.671627167E1
1.224281450E1,1.602253214E1,-1.303370915E1,-1.094283020E-1,2.065456572E1
1.225285550E1,9.013427964E0,-1.634278181E1,5.934806943E0,1.958444113E1
1.226289550E1,4.535049589E0,-1.681309792E1,6.664680374E0,1.864577435E1
1.227293650E1,3.887321352E0,-1.367397693E1,6.565725020E0,1.565878850E1
1.228297750E1,2.229604139E0,-8.472955204E0,4.118827822E0,9.681262683E0
1.229301750E1,1.804962382E-1,-3.264442027E0,1.219788827E0,3.489562353E0
1.230305850E1,-1.653775604E0,6.464418501E-1,-2.377197218E-1,1.791471876E0
1.231309850E1,-3.557865541E0,3.580178223E0,-1.625069869E0,5.302540466E0
1.232313950E1,-5.222196246E0,6.054858466E0,-2.165384170E0,8.283811519E0
1.233318050E1,-6.464236068E0,8.657127879E0,-1.636804061E0,1.092754952E1
1.234322050E1,-6.920652764E0,1.104780878E1,-2.279303133E-1,1.303846102E1
1.235326150E1,-6.318181976E0,1.288442155E1,1.414563088E0,1.441973408E1
1.236330250E1,-5.140804174E0,1.467547165E1,3.623839967E0,1.596651345E1
1.237334250E1,-3.778687686E0,1.610473113E1,4.586584024E0,1.716617600E1
1.238338350E1,-2.496028427E0,1.749648072E1,4.124628260E0,1.814854137E1
1.239342450E1,-1.758336830E0,1.833722146E1,3.161451509E0,1.869064512E1
1.240346450E1,-1.205166987E0,1.799610425E1,2.215236361E0,1.817194177E1
1.241350550E1,-1.156251373E0,1.633558622E1,9.794074523E-1,1.640571649E1
1.242354650E1,-1.821593032E0,1.432853998E1,-2.190074623E-2,1.444388240E1
1.243358650E1,-2.411833785E0,1.207017338E1,-3.451611400E-2,1.230882688E1
1.244362750E1,-2.680698408E0,1.000310196E1,6.748482084E-1,1.037803511E1
1.245366850E1,-2.548148461E0,8.519420688E0,1.452116246E0,9.010118258E0
1.246370850E1,-2.067073471E0,7.363421475E0,1.447106352E0,7.783757791E0
1.247374950E1,-1.157726772E0,6.656988947E0,7.292974806E-1,6.796153907E0
1.248378950E1,-2.722887531E-1,6.658770009E0,-9.818527579E-2,6.665058105E0
1.249383050E1,3.471108940E-1,7.094385821E0,-7.600374627E-1,7.143420265E0
1.250387150E1,6.286170517E-1,7.325532103E0,-1.519573234E0,7.507841421E0
1.251391150E1,4.105093297E-1,7.302779417E0,-2.239780633E0,7.649557007E0
1.252395250E1,-3.226183695E-1,7.487302340E0,-2.956022451E0,8.056168300E0
1.253399350E1,-1.327543656E0,7.975177642E0,-2.839951127E0,8.569197920E0
1.254403350E1,-2.315071575E0,8.458395637E0,-1.827399318E0,8.957868129E0
1.255407450E1,-2.966156845E0,8.802660983E0,-7.067213809E-1,9.315813541E0
1.256411550E1,-3.132394356E0,8.579453466E0,-2.810523406E-1,9.137718894E0
1.257415550E1,-2.722456883E0,7.338816977E0,-3.876131681E-1,7.837107251E0
1.258419650E1,-2.653507394E0,5.954108602E0,-1.598290717E-1,6.520587095E0
1.259423750E1,-2.556830407E0,4.717903132E0,6.924038887E-1,5.410676006E0
1.260427750E1,-2.596611646E0,2.470708230E0,1.353970731E0,3.831452458E0
1.261431850E1,-3.008157395E0,-2.298297814E0,2.293773238E0,4.426350576E0
1.262435950E1,-2.699438442E0,-1.354349631E1,5.594634647E0,1.490010728E1
1.263439950E1,-5.750742441E-1,-4.405131825E1,1.098151304E1,4.540311640E1
1.264444050E1,2.018372304E0,-8.153883287E1,1.458729681E1,8.285797681E1
1.265448150E1,5.775886638E0,-5.764578123E1,-1.665471790E0,5.795835364E1
1.266452150E1,8.581155006E0,-2.658498343E1,-2.293277979E1,3.614291015E1
1.267456250E1,1.853650977E1,-1.665044475E1,-1.878100641E1,3.120201447E1
1.268460250E1,2.604146135E1,-1.461780290E1,-5.444596848E0,3.035591385E1
1.269464350E1,1.937456078E1,-1.762338869E1,3.229576249E0,2.638915681E1
1.270468450E1,1.135378772E1,-1.830659374E1,5.451405931E0,2.222065923E1
1.271472450E1,8.874795159E0,-1.496579760E1,7.719566610E0,1.903493619E1
1.272476550E1,4.935731796E0,-9.517537476E0,6.975398490E0,1.279066660E1
1.273480650E1,1.288891514E-1,-4.053080560E0,2.707749674E0,4.876062216E0
1.274484650E1,-3.127384461E0,1.868770123E-3,-2.500858812E0,4.004351615E0
1.275488750E1,-6.090106067E0,2.896811206E0,-5.508180056E0,8.707522874E0
1.276492850E1,-8.995117993E0,5.524023671E0,-7.063604908E0,1.270124008E1
1.277496850E1,-1.109266511E1,7.991044647E0,-5.883725667E0,1.488362326E1
1.278500950E1,-1.203538596E1,9.749474886E0,-2.893822110E0,1.575680748E1
1.279505050E1,-1.085449983E1,1.147572205E1,6.246429185E-1,1.580830610E1
1.280509050E1,-8.278325368E0,1.351517006E1,5.918325981E0,1.691795127E1
1.281513150E1,-5.175579904E0,1.569522957E1,9.467353163E0,1.904619738E1
1.282517250E1,-2.769960541E0,1.760695100E1,9.411240942E0,2.015561612E1
1.283521250E1,-1.132121376E0,1.909789042E1,6.294719439E0,2.014037264E1
1.284525350E1,1.337923340E-1,1.961263952E1,3.559665606E0,1.993350819E1
1.285529350E1,9.076102223E-1,1.889284962E1,1.032765634E0,1.894281204E1
1.286533450E1,6.643796459E-1,1.712336522E1,-3.424667430E-1,1.713967095E1
1.287537550E1,-2.895133348E-1,1.484812941E1,-1.215844295E0,1.490063899E1
1.288541550E1,-9.579518254E-1,1.243509109E1,-1.138948731E0,1.252383194E1
1.289545650E1,-1.469317878E0,1.020223707E1,5.246589661E-2,1.030763256E1
1.290549750E1,-1.463718145E0,8.245923023E0,1.423830341E0,8.494999126E0
1.291553750E1,-9.448816904E-1,6.372789708E0,1.889383897E0,6.713793382E0
1.292557850E1,-6.467210546E-2,5.022957636E0,1.337895566E0,5.198485398E0
1.293561950E1,5.839212276E-1,4.632365969E0,3.490483689E-1,4.682052246E0
1.294565950E1,1.074314194E0,5.077924971E0,-8.801521361E-1,5.264422170E0
1.295570050E1,1.189791149E0,5.530976011E0,-2.151581233E0,6.052817559E0
1.296574150E1,8.683717507E-1,5.964641776E0,-2.955981520E0,6.713333581E0
1.297578150E1,1.687034275E-1,6.685953130E0,-3.531322982E0,7.563112594E0
1.298582250E1,-6.448911685E-1,7.607315272E0,-3.276941035E0,8.308157005E0
1.299586350E1,-1.549656720E0,8.732929428E0,-1.815190331E0,9.053198788E0
1.300590350E1,-2.502515621E0,9.690485251E0,-2.520430795E-1,1.001157403E1
1.301594450E1,-3.187061729E0,1.056940246E1,1.119700282E0,1.109609659E1
1.302598550E1,-3.950226282E0,1.096601558E1,2.124211586E0,1.184778715E1
1.303602550E1,-4.905555485E0,1.046751940E1,2.599150507E0,1.184858727E1
1.304606650E1,-4.150766776E0,9.202249761E0,3.018148533E0,1.053657848E1
1.305610650E1,-2.428248235E0,7.080816187E0,2.191439363E0,7.799791910E0
1.306614750E1,-1.363536338E0,4.265305837E0,1.157292616E0,4.625082856E0
1.307618850E1,-9.293330669E-1,2.687678522E-1,2.006232315E0,2.227299758E0
1.308622850E1,-2.542676345E-1,-8.493464313E0,5.449020267E0,1.009432563E1
1.309626950E1,4.433226468E0,-3.542560395E1,1.112326008E1,3.739456949E1
1.310631050E1,1.290977391E1,-8.871685610E1,1.766272408E1,9.137458421E1
1.311635050E1,1.328481432E1,-8.145512881E1,-1.786580490E0,8.255068850E1
1.312639150E1,7.877899854E0,-3.341224856E1,-3.159661793E1,4.665603846E1
1.313643250E1,1.269099215E1,-1.511429349E1,-2.978257775E1,3.572821136E1
1.314647250E1,2.000972160E1,-9.753835155E0,-9.554496557E0,2.422425774E1
1.315651350E1,1.991064170E1,-1.255513677E1,5.347276375E0,2.413831968E1
1.316655450E1,1.291427042E1,-1.491915553E1,1.308778303E1,2.367804145E1
1.317659450E1,8.767972961E0,-1.227176433E1,1.655203144E1,2.239292956E1
1.318663550E1,4.495314835E0,-7.485935261E0,9.295614592E0,1.275364783E1
1.319667650E1,5.305140755E-1,-3.046953671E0,1.161610200E0,3.303741835E0
1.320671650E1,-2.949527948E0,4.572557724E-1,-1.246867282E0,3.234729661E0
1.321675700E1,-6.399692747E0,2.979820619E0,-2.456512359E0,7.474613779E0
1.322679800E1,-9.301379946E0,5.022032021E0,-3.433372765E0,1.111415868E1
1.323683800E1,-1.134154833E1,7.252507396E0,-3.234963874E0,1.384538094E1
1.324687900E1,-1.260673845E1,9.645196227E0,-1.298873588E0,1.592629075E1
1.325691900E1,-1.239321451E1,1.179997472E1,-2.062522729E-1,1.711355337E1
1.326696000E1,-1.099432546E1,1.374361376E1,1.211786400E0,1.764172718E1
1.327700100E1,-9.001721839E0,1.499037345E1,2.924341067E0,1.772834067E1
1.328704100E1,-6.110973026E0,1.580423453E1,3.634092475E0,1.732987157E1
1.329708200E1,-3.281543963E0,1.605108176E1,3.630398204E0,1.678051094E1
1.330712300E1,-1.051130715E0,1.608639894E1,3.476373188E0,1.649127882E1
1.331716300E1,2.937101738E-1,1.597867920E1,3.104231826E0,1.628007094E1
1.332720400E1,1.045230436E0,1.541847384E1,1.926187441E0,1.557344022E1
1.333724500E1,1.770182704E0,1.429780935E1,1.836154354E-1,1.440814400E1
1.334728500E1,2.750611812E0,1.259916631E1,-8.466335571E-1,1.292368544E1
1.335732600E1,3.485255109E0,1.047627970E1,-1.121459709E0,1.109761737E1
1.336736700E1,3.767478574E0,8.256157989E0,-1.058596294E0,9.136666003E0
1.337740700E1,3.344724298E0,6.357203370E0,-6.003406477E-1,7.208441177E0
1.338744800E1,2.474510966E0,5.441510103E0,4.682099462E-2,5.977911753E0
1.339748900E1,1.334524208E0,5.814205196E0,2.211469402E-1,5.969492683E0
1.340752900E1,1.402709028E-1,6.875506997E0,-6.718789923E-1,6.909681163E0
1.341757000E1,-1.206557162E0,7.672835662E0,-1.839347518E0,7.981941279E0
1.342761000E1,-2.305890131E0,7.631560167E0,-2.670565476E0,8.407720252E0
1.343765100E1,-3.108137766E0,7.393083816E0,-2.737977440E0,8.474357152E0
1.344769200E1,-3.625199445E0,7.594060804E0,-1.920239654E0,8.631289060E0
1.345773200E1,-4.172779789E0,8.036031370E0,-6.068287182E-1,9.075138149E0
1.346777300E1,-4.577436640E0,8.720632149E0,6.378938055E-1,9.869612950E0
1.347781400E1,-4.870721575E0,9.124068979E0,1.326355501E0,1.042745330E1
1.348785400E1,-5.404621773E0,9.294402464E0,1.759077526E0,1.089450354E1
1.349789500E1,-5.844624751E0,9.365770655E0,1.831228659E0,1.119065221E1
1.350793600E1,-5.067761341E0,8.564409750E0,2.019326570E0,1.015426015E1
1.351797600E1,-3.225266559E0,7.163140891E0,2.051993794E0,8.119335584E0
1.352801700E1,-2.083106244E0,4.758412058E0,8.649721795E-1,5.265927630E0
1.353805800E1,-2.055696982E0,1.042444530E0,7.902566772E-2,2.306257951E0
1.354809800E1,-2.076904541E0,-6.038622503E0,2.143524939E0,6.735962690E0
1.355813900E1,3.927824722E-1,-2.418490723E1,7.363820840E0,2.528418227E1
1.356818000E1,6.961040068E0,-6.596443251E1,1.419015041E1,6.783157674E1
1.357822000E1,9.342174801E0,-8.549539578E1,9.102850603E0,8.648468546E1
1.358826100E1,6.944472567E0,-4.456296365E1,-1.912460050E1,4.898809828E1
1.359830200E1,9.675578359E0,-1.803227513E1,-2.674676887E1,3.367743173E1
1.360834200E1,1.969494727E1,-1.021952963E1,-1.151015513E1,2.499626782E1
1.361838300E1,2.594063898E1,-1.307265161E1,7.685069792E0,3.004781636E1
1.362842400E1,1.765690493E1,-1.922294014E1,1.235519006E1,2.887799233E1
1.363846400E1,1.095856272E1,-1.948651508E1,1.127418958E1,2.503840485E1
1.364850500E1,9.250224411E0,-1.427495609E1,9.514031485E0,1.948994146E1
1.365854600E1,5.311185606E0,-7.872791142E0,4.819470438E0,1.064973372E1
1.366858600E1,1.434395528E0,-2.705935283E0,-1.596863083E-1,3.066769637E0
1.367862700E1,-1.694991750E0,9.019283366E-1,-3.510232075E0,4.001024991E0
1.368866700E1,-4.898178053E0,3.502024924E0,-6.331109000E0,8.737234573E0
1.369870800E1,-6.981528711E0,5.611148354E0,-6.889002956E0,1.129978277E1
1.370874900E1,-8.639371054E0,7.971299769E0,-5.825257019E0,1.311922145E1
1.371878900E1,-9.898981758E0,9.744959081E0,-4.332564604E0,1.455077948E1
1.372883000E1,-1.065294513E1,1.108401474E1,-1.662969182E0,1.546305562E1
1.373887100E1,-1.000828610E1,1.265439910E1,9.400030661E-1,1.616116373E1
1.374891100E1,-8.141505200E0,1.450454234E1,2.773015126E0,1.686284283E1
1.375895200E1,-5.983309597E0,1.589887640E1,4.659933836E0,1.761502903E1
1.376899300E1,-4.008827662E0,1.699175024E1,4.237823339E0,1.796522814E1
1.377903300E1,-3.303156734E0,1.745174485E1,3.482339687E0,1.809974951E1
1.378907400E1,-2.551626678E0,1.683177860E1,2.708013968E0,1.723812372E1
1.379911500E1,-1.675245996E0,1.510366910E1,2.090909353E0,1.533946451E1
1.380915500E1,-1.178845307E0,1.316145444E1,1.687057371E0,1.332140090E1
1.381919600E1,-7.486422627E-1,1.121532332E1,1.093581355E0,1.129335480E1
1.382923700E1,-2.950082557E-1,9.581667983E0,4.685034764E-1,9.597650062E0
1.383927700E1,9.420054451E-2,8.275880647E0,6.047247073E-2,8.276637672E0
1.384931800E1,8.193023555E-1,7.226054007E0,-5.933926206E-2,7.272594724E0
1.385935800E1,1.720553877E0,6.709023319E0,-1.775450388E-2,6.926154399E0
1.386939900E1,2.447493175E0,6.706311965E0,-2.515940316E-1,7.143398531E0
1.387944000E1,2.656635069E0,7.100855180E0,-9.225064427E-1,7.637465045E0
1.388948000E1,2.397535734E0,7.563060036E0,-2.153683891E0,8.221095365E0
1.389952100E1,1.946574928E0,7.940859164E0,-3.243525367E0,8.795843053E0
1.390956200E1,8.709712766E-1,8.090157875E0,-3.945943782E0,9.043213906E0
1.391960200E1,-3.496338214E-1,8.262066016E0,-3.756158949E0,9.082549681E0
1.392964300E1,-1.362508690E0,8.495049493E0,-2.888979446E0,9.075709231E0
1.393968400E1,-2.280359433E0,8.715617577E0,-1.900722817E0,9.207321875E0
1.394972400E1,-3.215716302E0,8.894727148E0,-6.425779369E-1,9.479974091E0
1.395976500E1,-4.080930556E0,8.956205943E0,9.479529405E-1,9.887680914E0
1.396980600E1,-4.685677958E0,8.517998060E0,2.681327276E0,1.008471045E1
1.397984600E1,-4.130375488E0,7.545417232E0,4.129992496E0,9.542020797E0
1.398988700E1,-2.548738738E0,6.562954025E0,4.399609948E0,8.302108309E0
1.399992800E1,-1.929346400E0,4.067037864E0,2.796512747E0,5.299401670E0
1.400996800E1,-2.336181047E0,1.741768599E-1,1.974453868E0,3.063747303E0
1.402000900E1,-2.289065791E0,-6.359698377E0,3.931107057E0,7.819155218E0
1.403005000E1,-1.131736045E0,-2.199371696E1,8.031096904E0,2.344147882E1
1.404009000E1,1.575841721E0,-5.483715305E1,1.364595941E1,5.653148539E1
1.405013100E1,2.556666100E0,-7.768222929E1,1.155406655E1,7.857837961E1
1.406017200E1,4.298967673E0,-4.919874849E1,-1.119841785E1,5.063993027E1
1.407021200E1,7.598030478E0,-2.072580437E1,-2.431832665E1,3.284311260E1
1.408025300E1,1.639792807E1,-1.103037238E1,-1.454597103E1,2.453867219E1
1.409029400E1,2.354479850E1,-1.084216922E1,3.087534517E0,2.610446397E1
1.410033400E1,2.054403081E1,-1.602776774E1,8.593545256E0,2.743712013E1
1.411037500E1,1.200716028E1,-1.601203522E1,6.313784870E0,2.098621093E1
1.412041500E1,9.393750166E0,-1.109747736E1,4.272284489E0,1.515417305E1
1.413045600E1,6.761933019E0,-6.119019964E0,1.662398493E0,9.269828058E0
1.414049700E1,3.875252114E0,-1.763335469E0,-5.815897965E-1,4.297112707E0
1.415053700E1,1.228854935E0,1.328356419E0,-2.104921621E0,2.775844062E0
1.416057800E1,-1.433323587E0,3.517873217E0,-3.730815947E0,5.324362507E0
1.417061900E1,-3.891771083E0,5.469924647E0,-5.224417604E0,8.506497346E0
1.418065900E1,-5.668220687E0,7.046343927E0,-5.497265643E0,1.058298720E1
1.419070000E1,-7.814538256E0,8.122469589E0,-5.144753968E0,1.238991581E1
1.420074100E1,-9.607317379E0,9.083403348E0,-4.420306753E0,1.394087068E1
1.421078100E1,-1.091964950E1,9.956673896E0,-1.567507539E0,1.486038964E1
1.422082179E1,-1.138858567E1,1.132826229E1,2.145433470E0,1.620593394E1
1.423086279E1,-1.041583235E1,1.380188945E1,5.445601984E0,1.812832857E1
1.424090279E1,-8.521776531E0,1.656289790E1,6.688201969E0,1.979096531E1
1.425094379E1,-6.308054599E0,1.825822557E1,5.899894388E0,2.019809664E1
1.426098479E1,-3.584912714E0,1.814103217E1,3.521153505E0,1.882411138E1
1.427102479E1,-1.178750436E0,1.659174806E1,1.415676398E0,1.669370229E1
1.428106579E1,-4.037733373E-1,1.486110321E1,-6.491578817E-3,1.486658884E1
1.429110679E1,-9.426055156E-1,1.326994602E1,-7.401464045E-1,1.332395547E1
1.430114679E1,-1.589418956E0,1.182736775E1,-7.581663537E-1,1.195774631E1
1.431118779E1,-2.187719949E0,1.063210332E1,-3.829879475E-1,1.086160298E1
1.432122879E1,-2.489840612E0,9.497104965E0,-1.465686464E-1,9.819154310E0
1.433126879E1,-2.189784308E0,8.609517510E0,-1.782909608E-1,8.885422598E0
1.434130979E1,-2.127185479E0,8.031412654E0,-6.210666152E-1,8.331520331E0
1.435134979E1,-2.457851956E0,7.486642190E0,-1.391183581E0,8.001639786E0
1.436139079E1,-2.592762132E0,6.957294341E0,-2.043678469E0,7.700842922E0
1.437143179E1,-2.540136899E0,6.472069582E0,-2.021752580E0,7.240681158E0
1.438147179E1,-2.331730585E0,5.758220446E0,-1.576933397E0,6.409429706E0
1.439151279E1,-1.669506953E0,5.065262825E0,-7.568776274E-1,5.386743423E0
1.440155379E1,-9.374261981E-1,5.144613050E0,9.785198450E-2,5.230237693E0
1.441159379E1,2.213346541E-2,6.108701967E0,7.174669553E-1,6.150730724E0
1.442163479E1,1.239129662E0,7.396058294E0,4.460513377E-1,7.512395251E0
1.443167579E1,2.183553515E0,8.237690143E0,-4.923184548E-1,8.536382273E0
1.444171579E1,2.921452250E0,7.811110033E0,-1.319420704E0,8.443292853E0
1.445175679E1,2.817779947E0,4.772798547E0,-2.606893390E0,6.124980241E0
1.446179779E1,1.643669569E0,1.132529073E0,-2.450853424E0,3.160847080E0
1.447183779E1,1.851434005E0,-5.452293538E0,7.667593487E-1,5.808892545E0
1.448187879E1,4.784056776E0,-2.308746437E1,4.759359891E0,2.405347619E1
1.449191979E1,1.058521216E1,-5.955484569E1,1.050365987E1,6.139342987E1
1.450195979E1,1.043055564E1,-7.751229049E1,8.014963267E0,7.862055268E1
1.451200079E1,4.136773512E0,-4.267037899E1,-8.539359108E0,4.371263882E1
1.452204179E1,5.573128588E0,-1.851984871E1,-1.350897669E1,2.359103664E1
1.453208179E1,1.109841409E1,-1.116259196E1,-2.843171189E0,1.599568307E1
1.454212279E1,1.351189094E1,-1.521464692E1,8.438379448E0,2.202868415E1
1.455216379E1,1.011922532E1,-1.924554197E1,1.227569015E1,2.496962506E1
1.456220379E1,8.812943897E0,-1.670087816E1,1.023017624E1,2.147658765E1
1.457224479E1,7.031440544E0,-1.082147943E1,2.954483464E0,1.323912934E1
1.458228579E1,3.763137601E0,-5.894191014E0,-2.280743887E0,7.355575096E0
1.459232579E1,2.987000415E-1,-2.578568893E0,-6.157254322E0,6.682067048E0
1.460236679E1,-2.771576126E0,-3.629384297E-1,-8.868503555E0,9.298586658E0
1.461240679E1,-4.945225335E0,1.816893625E0,-9.308635172E0,1.069612289E1
1.462244779E1,-6.573165017E0,4.180027705E0,-7.047494659E0,1.050458523E1
1.463248879E1,-7.974485332E0,7.071229092E0,-3.674554623E0,1.127373269E1
1.464252879E1,-8.074491431E0,9.730977804E0,-1.169653630E0,1.269871767E1
1.465256979E1,-6.877388046E0,1.185769726E1,8.411862910E-1,1.373357364E1
1.466261079E1,-4.958973309E0,1.413479249E1,4.179564021E0,1.555160861E1
1.467265079E1,-3.678638903E0,1.685465291E1,8.102800140E0,1.905956660E1
1.468269179E1,-2.759037357E0,2.013361007E1,7.487705798E0,2.165733778E1
1.469273279E1,-2.641167430E0,2.274969177E1,3.828808265E0,2.322033621E1
1.470277279E1,-1.781577612E0,2.325609807E1,-3.474708815E-2,2.332426470E1
1.471281379E1,-4.776646015E-1,2.145839735E1,-2.354215322E0,2.159243640E1
1.472285479E1,-4.762818812E-1,1.848122435E1,-2.804203005E0,1.869882489E1
1.473289479E1,-2.077273208E0,1.492441452E1,-1.912841756E0,1.518921250E1
1.474293579E1,-3.237133775E0,1.168001909E1,-1.240536502E0,1.218362884E1
1.475297679E1,-3.342887102E0,9.226243225E0,-2.573535025E-1,9.816551791E0
1.476301679E1,-2.713123266E0,7.368871080E0,9.031995213E-1,7.904243685E0
1.477305779E1,-1.602279615E0,6.056785124E0,1.149694744E0,6.369752272E0
1.478309879E1,-5.273049773E-1,5.252284849E0,6.982100277E-1,5.324663737E0
1.479313879E1,-2.834491874E-1,4.637431412E0,-1.603182279E-1,4.648850984E0
1.480317979E1,-9.974180460E-1,3.981207755E0,-1.211596878E0,4.279348658E0
1.481322079E1,-1.636131923E0,3.544207907E0,-1.832258939E0,4.312251173E0
1.482326079E1,-1.954385493E0,4.115805396E0,-2.003260760E0,4.977201060E0
1.483330179E1,-2.160906226E0,5.715343398E0,-1.824205568E0,6.376706974E0
1.484334279E1,-2.196647916E0,6.965346542E0,-1.727152314E0,7.504956338E0
1.485338279E1,-2.134010788E0,7.624647589E0,-1.490326631E0,8.056694506E0
1.486342379E1,-2.180480219E0,8.218106064E0,-6.322711229E-1,8.525932678E0
1.487346479E1,-2.584534515E0,8.758739623E0,6.387802434E-1,9.154418531E0
1.488350479E1,-2.770043571E0,8.977575177E0,1.709425310E0,9.549457175E0
1.489354579E1,-1.906423706E0,8.052401235E0,2.410338067E0,8.618894743E0
1.490358579E1,-6.769668008E-1,5.403136581E0,2.968559466E0,6.201976641E0
1.491362679E1,4.060173525E-1,2.086442081E0,5.443442023E0,5.843727552E0
1.492366779E1,2.128898714E0,-6.669866270E0,8.282263468E0,1.084505482E1
1.493370779E1,8.638642491E0,-3.653817239E1,1.088578477E1,3.909174459E1
1.494374879E1,2.076994150E1,-9.232270769E1,1.266752844E1,9.547428503E1
1.495378979E1,2.267084324E1,-8.363893756E1,-7.185074966E0,8.695438063E1
1.496382979E1,1.540604032E1,-3.177845464E1,-2.400492057E1,4.270190241E1
1.497387079E1,1.377259607E1,-1.138436515E1,-1.723282158E1,2.482455059E1
1.498391179E1,1.537315675E1,-3.061495696E0,-4.614234338E0,1.634006924E1
1.499395179E1,1.536694116E1,-3.101971292E0,2.230084780E0,1.583472085E1
1.500399279E1,1.060243572E1,-5.225464840E0,6.676015202E0,1.357520920E1
1.501403379E1,4.973440490E0,-4.471019654E0,9.639973494E0,1.173261335E1
1.502407379E1,-4.965148553E-1,-3.519205797E0,7.218674237E0,8.046153999E0
1.503411479E1,-4.509606600E0,-2.437207777E0,1.500396706E0,5.341135058E0
1.504415579E1,-8.149508284E0,-1.033583075E0,-1.859025738E0,8.422514822E0
1.505419579E1,-1.080735723E1,1.055113692E0,-2.703978220E0,1.119034108E1
1.506423679E1,-1.277027455E1,3.942630165E0,-2.642971296E0,1.362385929E1
1.507427779E1,-1.317038782E1,7.181594118E0,-4.254041176E0,1.559266737E1
1.508431779E1,-1.249940696E1,1.006079877E1,-6.180129215E0,1.719444222E1
1.509435879E1,-1.143816655E1,1.253791087E1,-4.163161411E0,1.747463236E1
1.510439979E1,-9.583875892E0,1.525065173E1,-2.366052242E-1,1.801357925E1
1.511443979E1,-7.541075090E0,1.842003674E1,6.069717411E0,2.080882112E1
1.512448079E1,-4.722425954E0,2.125584512E1,9.261449311E0,2.366192515E1
1.513452179E1,-1.862450013E0,2.259310802E1,7.109890298E0,2.375853089E1
1.514456179E1,2.653861150E-1,2.171109997E1,2.217910293E0,2.182570544E1
1.515460279E1,1.375795025E0,1.904547364E1,-1.754611423E0,1.917554535E1
1.516464379E1,2.033252445E0,1.645259369E1,-2.476067203E0,1.676164859E1
1.517468379E1,2.234405434E0,1.400763426E1,-2.094582574E0,1.433853763E1
1.518472479E1,1.928713292E0,1.164981471E1,-1.862936940E0,1.195444067E1
1.519476479E1,1.313060249E0,9.813870857E0,-1.673916923E0,1.004182186E1
1.520480579E1,8.535240622E-1,8.480327373E0,-7.702309138E-1,8.557903443E0
1.521484700E1,1.937808198E-1,7.536533557E0,1.847790313E-1,7.541288508E0
1.522488700E1,-4.597518025E-1,6.679927574E0,-1.836213191E-1,6.698247599E0
1.523492800E1,-9.106243157E-1,5.583561190E0,-1.439798502E0,5.837671791E0
1.524496900E1,-1.516434741E0,4.404056756E0,-2.860507599E0,5.466058356E0
1.525500900E1,-2.173454497E0,3.427772301E0,-3.860184424E0,5.601299062E0
1.526505000E1,-2.865037729E0,3.007579690E0,-4.120665017E0,5.850970600E0
1.527509100E1,-3.356264362E0,3.511425492E0,-3.302906765E0,5.873994600E0
1.528513100E1,-3.458580696E0,4.566036909E0,-1.864256072E0,6.023779892E0
1.529517200E1,-3.125671519E0,5.623432184E0,-5.024000779E-3,6.433726542E0
1.530521300E1,-1.825549551E0,5.609898804E0,1.721492209E0,6.145496821E0
1.531525300E1,-1.412804246E-1,3.776625373E0,2.730157374E0,4.662254675E0
1.532529400E1,4.245397237E-1,8.629689234E-1,3.997160713E0,4.111233769E0
1.533533500E1,1.188840976E0,-6.083425623E0,5.364697570E0,8.197645405E0
1.534537500E1,4.101223318E0,-2.381422650E1,6.363286228E0,2.498857395E1
1.535541600E1,9.470991300E0,-5.679155448E1,8.237417078E0,5.816214728E1
1.536545700E1,1.261098236E1,-6.912870705E1,-6.476078580E-1,7.027257225E1
1.537549700E1,9.321701360E0,-4.024312961E1,-1.280110224E1,4.324663935E1
1.538553800E1,1.336552578E1,-2.445394697E1,-9.133999890E0,2.932682656E1
1.539557900E1,2.163118958E1,-1.866879835E1,2.453146702E0,2.867839471E1
1.540561900E1,2.155467292E1,-1.662796338E1,9.503128767E0,2.883405187E1
1.541566000E1,1.512174051E1,-1.527123276E1,1.403791816E1,2.566984091E1
1.542570100E1,1.143190419E1,-1.187856246E1,9.871510370E0,1.921549886E1
1.543574100E1,7.401699103E0,-9.499229259E0,-1.792023078E0,1.217505042E1
1.544578200E1,3.919999686E-1,-8.152496211E0,-9.126682684E0,1.224390441E1
1.545582300E1,-6.508439848E0,-6.868996707E0,-1.241135374E1,1.560719727E1
1.546586300E1,-1.195054754E1,-3.808036616E0,-1.035865360E1,1.626709666E1
1.547590400E1,-1.380270104E1,1.418729814E0,-5.285261976E0,1.484794075E1
1.548594500E1,-1.216764881E1,5.882861449E0,-3.239685646E-1,1.351904922E1
1.549598500E1,-9.603068792E0,9.462950209E0,3.731565560E0,1.398895773E1
1.550602600E1,-7.568449999E0,1.234065388E1,6.433242316E0,1.584171015E1
1.551606700E1,-8.171755185E0,1.454062083E1,7.491118233E0,1.828453142E1
1.552610700E1,-8.711266664E0,1.683894963E1,6.025988424E0,1.989343932E1
1.553614800E1,-7.491212958E0,1.874843508E1,5.622232336E0,2.095785261E1
1.554618900E1,-4.766443793E0,1.951148036E1,4.997985932E0,2.069774663E1
1.555622900E1,-2.723655855E0,1.906253815E1,4.366586044E0,1.974501800E1
1.556627000E1,-1.202868154E0,1.867675056E1,2.610968900E0,1.889669447E1
1.557631000E1,2.178731024E-1,1.812289060E1,6.289487350E-1,1.813510984E1
1.558635100E1,1.833214081E0,1.730103169E1,-9.489212394E-2,1.739814289E1
1.559639200E1,3.426327454E0,1.582628906E1,-1.683261359E-1,1.619380990E1
1.560643200E1,4.462436526E0,1.346859114E1,1.285825745E-1,1.418917970E1
1.561647300E1,4.167429294E0,1.089054440E1,2.803049568E-1,1.166404712E1
1.562651400E1,3.177298048E0,8.498519815E0,-1.385357964E-1,9.074097977E0
1.563655400E1,2.185451814E0,6.935501184E0,-1.366031199E0,7.398879479E0
1.564659500E1,1.179347437E0,5.964395024E0,-2.466774223E0,6.561237950E0
1.565663600E1,-1.004958031E-1,5.019150513E0,-3.062474520E0,5.880537515E0
1.566667600E1,-1.544449629E0,4.359623179E0,-2.925394735E0,5.472620330E0
1.567671700E1,-3.025369259E0,4.069187885E0,-2.273278162E0,5.556882471E0
1.568675800E1,-4.289148736E0,4.268894858E0,-1.264783151E0,6.182227479E0
1.569679800E1,-5.466905730E0,4.788293084E0,-3.353319705E-1,7.275112126E0
1.570683900E1,-6.574460176E0,5.786885836E0,2.723259012E-1,8.762747039E0
1.571688000E1,-7.041888934E0,7.166459185E0,9.424191356E-1,1.009130769E1
1.572692000E1,-6.637515965E0,8.648025518E0,1.615237191E0,1.102061499E1
1.573696100E1,-5.468927112E0,1.011852015E1,1.828452401E0,1.164632354E1
1.574700200E1,-4.270459573E0,1.106367578E1,2.049156725E0,1.203498193E1
1.575704200E1,-3.468221000E0,1.119456921E1,2.449900328E0,1.197284212E1
1.576708300E1,-2.387443294E0,1.072191538E1,2.997667490E0,1.138619187E1
1.577712400E1,-1.080331272E0,9.681999772E0,2.531584761E0,1.006564239E1
1.578716400E1,-3.338347909E-1,7.079667794E0,1.525823908E0,7.249915885E0
1.579720500E1,-3.782259750E-1,4.885879605E0,2.840019540E0,5.663972580E0
1.580724600E1,7.494317830E-2,3.470854586E0,7.610824771E0,8.365231720E0
1.581728600E1,9.618450478E-1,-1.067486634E1,1.182436930E1,1.595912362E1
1.582732700E1,1.228676711E1,-9.360024479E1,1.028490735E1,9.496183333E1
1.583736800E1,2.090355739E1,-1.319123712E2,-4.352338133E0,1.336292454E2
1.584740800E1,8.098556231E0,-5.283545467E1,-3.127845456E1,6.193152350E1
1.585744900E1,6.351185415E0,-2.114585665E1,-2.205203708E1,3.120540257E1
1.586749000E1,1.424662984E1,-9.448573660E0,-3.383486660E0,1.742670330E1
1.587753000E1,1.668656183E1,-7.324180811E0,1.058492564E1,2.107428816E1
1.588757100E1,8.741074015E0,-9.392660245E0,1.313177982E1,1.835952294E1
1.589761200E1,5.051769206E0,-6.290012430E0,9.543488588E0,1.249651163E1
1.590765200E1,2.872727695E0,-2.053778949E0,1.687769562E0,3.913967102E0
1.591769300E1,4.831434426E-1,1.734219843E0,-3.014311005E0,3.510985173E0
1.592773400E1,-1.527809038E0,4.877321620E0,-3.738100408E0,6.332129287E0
1.593777400E1,-3.223147236E0,7.140740792E0,-3.047484598E0,8.406308318E0
1.594781500E1,-4.646325611E0,8.949317338E0,-1.857660413E0,1.025326898E1
1.595785600E1,-5.449012665E0,1.030741679E1,-1.520641521E-4,1.165909859E1
1.596789600E1,-5.600957242E0,1.181119903E1,1.660286479E0,1.317693803E1
1.597793700E1,-4.889911260E0,1.349030887E1,3.489408971E0,1.476738435E1
1.598797700E1,-3.796697111E0,1.510037127E1,5.688423986E0,1.657692037E1
1.599801800E1,-3.083354927E0,1.657128398E1,6.068395940E0,1.791479722E1
1.600805900E1,-2.869169664E0,1.795949367E1,5.081373074E0,1.888374697E1
1.601809900E1,-3.268208218E0,1.914623169E1,3.591425343E0,1.975241020E1
1.602814000E1,-3.785685634E0,1.986662854E1,2.020443388E0,2.032477643E1
1.603818100E1,-2.976325153E0,1.852884056E1,4.731929068E-1,1.877232952E1
1.604822100E1,-1.381940595E0,1.530945367E1,-2.359257960E-1,1.537350944E1
1.605826200E1,-7.311535330E-1,1.252636730E1,-2.186227155E-1,1.254959199E1
1.606830300E1,1.202950600E-1,1.062273257E1,2.092402732E-1,1.062547409E1
1.607834300E1,7.822454801E-1,9.140067546E0,1.967108595E-1,9.175589240E0
1.608838400E1,9.885513282E-1,8.162133007E0,-2.405965519E-1,8.225298515E0
1.609842500E1,9.122355160E-1,7.679446524E0,-1.090344336E0,7.809924669E0
1.610846500E1,6.281331946E-1,7.189083232E0,-1.968431236E0,7.480119689E0
1.611850600E1,2.330121285E-1,6.533712684E0,-2.414222957E0,6.969373614E0
1.612854700E1,-4.063904049E-1,5.895944594E0,-2.602435473E0,6.457552648E0
1.613858700E1,-1.553947261E0,5.441750423E0,-2.693218759E0,6.267441826E0
1.614862800E1,-2.775509548E0,5.207089965E0,-2.754608091E0,6.511920215E0
1.615866900E1,-3.851582877E0,5.254021472E0,-2.515893173E0,6.983491301E0
1.616870900E1,-4.599863344E0,5.755582182E0,-1.986936504E0,7.631080245E0
1.617875000E1,-4.785294339E0,6.498890761E0,-1.069094385E0,8.141104706E0
1.618879100E1,-4.943248392E0,6.937200969E0,-8.808949152E-2,8.518698358E0
1.619883100E1,-5.459970347E0,6.576603180E0,4.965186560E-1,8.562097661E0
1.620887200E1,-5.923345231E0,5.760573950E0,8.199018413E-1,8.303160241E0
1.621891292E1,-5.280567246E0,4.698525460E0,1.247806930E0,7.177572993E0
1.622895292E1,-3.830853913E0,2.905867374E0,2.112627082E0,5.251923465E0
1.623899392E1,-2.285556731E0,-7.916662216E-1,4.712957557E0,5.297402563E0
1.624903492E1,4.748228547E-1,-1.431380616E1,9.184354942E0,1.701360865E1
1.625907492E1,8.911770027E0,-5.770388852E1,1.508346346E1,6.030480301E1
1.626911592E1,1.929062400E1,-1.044396635E2,1.654530831E1,1.074872956E2
1.627915692E1,2.407906327E1,-6.776197419E1,-1.737307875E1,7.398182411E1
1.628919692E1,1.883486863E1,-2.765955666E1,-3.491726106E1,4.836340011E1
1.629923792E1,1.556175050E1,-1.116556351E1,-2.220823493E1,2.932649972E1
1.630927892E1,1.530245338E1,-5.280364348E0,-2.571511889E0,1.639085113E1
1.631931892E1,1.064430763E1,-7.022377945E0,1.161362512E1,1.724793800E1
1.632935992E1,4.454247501E0,-7.355721862E0,1.767216500E1,1.965330457E1
1.633940092E1,2.450052063E-1,-4.462128963E0,1.435550967E1,1.503500184E1
1.634944092E1,-4.169502717E0,-1.280108703E0,1.742124109E0,4.696640034E0
1.635948192E1,-6.716909459E0,2.282329652E0,-2.328743681E0,7.466521844E0
1.636952292E1,-8.181514188E0,5.360843085E0,-3.406274428E0,1.035753438E1
1.637956292E1,-8.825071022E0,8.459468016E0,-4.257279364E0,1.294484087E1
1.638960392E1,-8.921848873E0,1.109173774E1,-2.456286657E0,1.444504682E1
1.639964492E1,-8.063468260E0,1.321942842E1,6.135097468E-1,1.549674812E1
1.640968492E1,-6.143066053E0,1.479213179E1,4.085692821E0,1.652989139E1
1.641972592E1,-3.109665936E0,1.557944418E1,6.083715645E0,1.701178119E1
1.642976692E1,-3.360431381E-1,1.645615113E1,6.748735853E0,1.778941457E1
1.643980692E1,4.094578542E-1,1.781254729E1,5.816150565E0,1.874252128E1
1.644984792E1,1.383504141E0,1.844540898E1,3.632807257E0,1.885058314E1
1.645988892E1,2.379442841E0,1.780108324E1,9.436529712E-1,1.798418176E1
1.646992892E1,1.957225339E0,1.556815671E1,-1.146830778E0,1.573256035E1
1.647996992E1,4.730637199E-1,1.316469614E1,-1.062860084E0,1.321600111E1
1.649000992E1,-6.656252490E-1,1.103770713E1,-4.165661315E-1,1.106560269E1
1.650005092E1,-1.431671749E0,9.522645019E0,6.562599099E-1,9.652001306E0
1.651009192E1,-2.208126001E0,8.682879016E0,1.173891692E0,9.035830352E0
1.652013192E1,-2.645592018E0,8.270780706E0,2.446568584E-1,8.687049418E0
1.653017292E1,-2.612106476E0,8.084271483E0,-1.268218390E0,8.589931521E0
1.654021392E1,-2.022840308E0,7.987619348E0,-1.982271010E0,8.474865433E0
1.655025392E1,-1.493393788E0,7.864765254E0,-1.920710939E0,8.232489782E0
1.656029492E1,-1.116694082E0,7.612811070E0,-1.683014606E0,7.876194273E0
1.657033592E1,-6.497564904E-1,7.311626839E0,-1.368278868E0,7.466877366E0
1.658037592E1,-3.357776745E-1,7.355958674E0,-8.228447449E-1,7.409449921E0
1.659041692E1,-2.512645045E-1,7.831684631E0,-1.066812801E-1,7.836440449E0
1.660045792E1,-2.774518445E-1,8.522493399E0,4.270712757E-1,8.537696595E0
1.661049792E1,-4.516007839E-1,8.982614307E0,6.421640271E-1,9.016855200E0
1.662053892E1,-9.471898788E-1,8.955464516E0,5.941513699E-1,9.024994693E0
1.663057992E1,-1.322524698E0,8.496524745E0,4.718650407E-1,8.611774552E0
1.664061992E1,-1.332906429E0,7.606215996E0,1.391391925E-1,7.723374977E0
1.665066092E1,-1.214210583E0,6.052074607E0,-5.374585211E-1,6.196029055E0
1.666070192E1,-8.748240070E-1,4.095258281E0,3.798374677E-1,4.204846481E0
1.667074192E1,-5.021844618E-1,3.382269269E-1,3.066754682E0,3.125951210E0
1.668078292E1,9.919070452E-1,-1.154919232E1,7.274658988E0,1.368533471E1
1.669082392E1,9.802199230E0,-5.252880797E1,1.200699305E1,5.476793458E1
1.670086392E1,1.681559468E1,-1.003563142E2,1.297337407E1,1.025790547E2
1.671090492E1,9.092113945E0,-5.964801756E1,-1.449425942E1,6.205349379E1
1.672094592E1,3.783172501E0,-2.215939664E1,-2.743861610E1,3.547152248E1
1.673098592E1,1.105031489E1,-1.166672369E1,-1.241731673E1,2.030792101E1
1.674102692E1,1.924156820E1,-1.082902351E1,4.828630686E0,2.260135773E1
