"Time (s)","Linear Acceleration x (m/s^2)","Linear Acceleration y (m/s^2)","Linear Acceleration z (m/s^2)","Absolute acceleration (m/s^2)"
3.425958334E-3,1.288603538E-1,1.550377536E-1,-1.095930766E0,1.114318599E0
1.336195832E-2,3.049849212E-2,-4.612663776E-2,-1.146079996E0,1.147413256E0
2.329695830E-2,-2.027788076E-1,-2.145559770E-1,-8.994613963E-1,9.466701197E-1
3.323295835E-2,-4.989496359E-1,-2.707933277E-1,-4.873022747E-1,7.481599244E-1
4.316795833E-2,-6.362048373E-1,-2.570687431E-1,-2.276671886E-2,6.865560845E-1
5.310395831E-2,-7.223815401E-1,-1.957647800E-1,3.114922875E-1,8.106703299E-1
6.303895835E-2,-8.218330304E-1,-1.646938455E-1,4.993773597E-1,9.756594386E-1
7.297495834E-2,-7.855743000E-1,-9.473074079E-2,5.861488706E-1,9.847189409E-1
8.290995832E-2,-6.450841266E-1,-3.648370206E-2,5.550130320E-1,8.517652591E-1
9.284595831E-2,-3.830354561E-1,-6.153346628E-2,5.206857830E-1,6.493198078E-1
1.027809583E-1,-2.392522770E-1,-8.854672551E-2,7.228596961E-1,7.665561395E-1
1.127169583E-1,-2.609264436E-1,-3.154806733E-2,8.807193160E-1,9.190997787E-1
1.226529583E-1,-4.336108017E-1,-8.257613361E-2,8.867337620E-1,9.905220391E-1
1.325879583E-1,-4.342032708E-1,-2.029276192E-1,8.477907211E-1,9.738897298E-1
1.425239583E-1,-3.574240668E-1,-2.748474947E-1,8.428603488E-1,9.558800534E-1
1.524589583E-1,-2.972138254E-1,-3.264050263E-1,9.395031291E-1,1.038047412E0
1.623949583E-1,-7.133953929E-2,-5.004567558E-1,1.037503048E0,1.154105225E0
1.723299584E-1,-9.228411958E-2,-8.069891426E-1,9.742034304E-1,1.268392746E0
1.822659583E-1,-2.812228601E-1,-9.128170216E-1,8.008054197E-1,1.246439141E0
1.922009583E-1,-4.290088968E-1,-7.497843701E-1,5.970790708E-1,1.050108876E0
2.021369583E-1,-3.574264057E-1,-4.600255984E-1,3.817430753E-1,6.964947682E-1
2.120719583E-1,-2.075504279E-1,-1.197351891E-1,1.278844535E-2,2.399525786E-1
2.220079583E-1,5.699237242E-2,3.741721004E-2,-2.217270023E-1,2.319720708E-1
2.319429583E-1,3.122224586E-1,5.247408271E-2,-2.476833773E-1,4.019744375E-1
2.418789583E-1,4.031143561E-1,7.812932611E-2,-2.784315455E-1,4.961144034E-1
2.518139583E-1,2.551030554E-1,2.112224793E-1,-2.140151095E-1,3.943285074E-1
2.617499583E-1,-5.389656410E-2,3.342224613E-1,-1.831523359E-2,3.390353094E-1
2.716849583E-1,-3.582447235E-1,2.747723579E-1,1.434643596E-1,4.737310979E-1
2.816209584E-1,-6.445218437E-1,-4.254814178E-2,4.532463366E-1,7.890823740E-1
2.915559583E-1,-1.021039043E0,-6.476528084E-1,8.442490625E-1,1.474697043E0
3.014919583E-1,-1.071022504E0,-1.177684196E0,1.267790959E0,2.035024124E0
3.114269583E-1,-4.325221598E-1,-6.806574172E-1,1.670277616E0,1.854776874E0
3.213633750E-1,-6.808351725E-5,-7.410281646E-1,2.009145398E0,2.141445301E0
3.312993750E-1,5.022021496E-1,-1.696706446E0,2.069751788E0,2.723029972E0
3.412343750E-1,1.329510659E0,-2.534556316E0,2.081038669E0,3.538685667E0
3.511703750E-1,1.385482838E0,-3.117411450E0,1.720032744E0,3.820514296E0
3.611053750E-1,1.561502448E0,-3.813907805E0,1.961908082E0,4.564347266E0
3.710413750E-1,3.130646915E0,-4.045359896E0,3.048966283E0,5.955004802E0
3.809763750E-1,3.847703250E0,-1.866398492E0,3.176323317E0,5.327034207E0
3.909123750E-1,2.442724040E0,-2.706756817E0,2.257673113E0,4.288417084E0
4.008473750E-1,1.957743110E0,-3.444016451E0,1.810765159E0,4.355786710E0
4.107833750E-1,1.142388502E0,-3.140126714E0,2.286168349E0,4.048705100E0
4.207183750E-1,-1.740987995E-1,-3.103874561E0,3.179797148E0,4.446960489E0
4.306543750E-1,-8.110529575E-1,-3.165897147E0,2.931337845E0,4.390154121E0
4.405893750E-1,-1.083379425E-1,-3.223713246E0,2.178539528E0,3.892312767E0
4.505253750E-1,1.369803822E0,-3.565138600E0,1.124344726E0,3.981297126E0
4.604603750E-1,2.933925531E0,-4.819773908E0,6.205497944E-1,5.676550149E0
4.703963750E-1,3.613231656E0,-5.960673271E0,5.668343478E-1,6.993308946E0
4.803313750E-1,3.990113356E0,-6.852833834E0,6.140164080E-1,7.953574813E0
4.902673750E-1,3.685668426E0,-7.894053957E0,1.327839817E0,8.812683938E0
5.002023750E-1,3.515446915E0,-9.519800348E0,1.584608890E0,1.027112219E1
5.101383750E-1,3.932524422E0,-1.091165051E1,1.128610708E0,1.165343844E1
5.200733750E-1,-5.401920944E0,-8.967234961E0,-2.687337044E0,1.080804483E1
5.300093750E-1,-1.120308627E1,-5.136533368E0,-2.516165653E0,1.257872038E1
5.399453750E-1,-1.548115131E1,-1.879807327E0,-1.541099466E-2,1.559486964E1
5.498803750E-1,-2.211697158E1,-3.251671708E-1,-1.271362438E0,2.215586893E1
5.598163750E-1,-1.796138582E1,-9.405679071E-1,-7.851661643E-1,1.800312569E1
5.697513750E-1,-1.206881800E1,-4.663194244E0,-4.193330705E-1,1.294517627E1
5.796873750E-1,-8.460090744E0,-7.392893196E0,6.266694903E-1,1.125258725E1
5.896223750E-1,2.568033088E0,-5.496463405E0,-1.730041715E0,6.308640760E0
5.995583750E-1,1.984579608E1,2.580322473E0,-9.113400149E-1,2.003357748E1
6.094933750E-1,1.944855964E1,6.854093909E0,1.656668807E0,2.068742678E1
6.194293750E-1,1.407937374E1,4.500725264E0,-6.282736740E-1,1.479459431E1
6.293643750E-1,8.986515570E0,2.821918899E-1,3.859302079E0,9.784237675E0
6.393003750E-1,-1.929881712E0,-1.262496305E0,2.415214645E0,3.339401462E0
6.492353750E-1,2.158669227E-1,-9.917953634E-1,3.043755244E0,3.208535890E0
6.591713750E-1,4.299323183E-1,-2.898406327E-2,1.629670750E0,1.685677498E0
6.691063750E-1,2.681242492E0,1.506695327E0,-6.988849425E-1,3.153986726E0
6.790423750E-1,3.608919627E0,2.991760048E0,1.319235055E0,4.869836772E0
6.889773750E-1,3.696527874E0,3.241637301E0,5.133432004E0,7.108069700E0
6.989133750E-1,2.575548806E0,2.946794375E0,6.103665175E0,7.250639787E0
7.088483750E-1,9.082339740E-1,3.353666444E0,5.624123325E0,6.610804093E0
7.187843750E-1,-4.446292949E-1,3.859094503E0,5.243287153E0,6.525516513E0
7.287193750E-1,1.448747081E-1,3.873741778E0,3.760318658E0,5.400635190E0
7.386553750E-1,2.164613507E0,4.566573683E0,1.803798201E0,5.365895525E0
7.485913750E-1,2.730616381E0,5.418842202E0,2.305374699E0,6.491137738E0
7.585263750E-1,3.000978184E-1,4.810842286E0,3.063096664E0,5.711114022E0
7.684623750E-1,-2.890579244E0,2.959658834E0,2.072459049E0,4.627106579E0
7.783973750E-1,-2.306945845E0,1.559141343E0,5.598826297E-1,2.840138979E0
7.883333750E-1,-9.173339957E-1,8.994228047E-1,-1.051128230E0,1.659919756E0
7.982683750E-1,-8.418388402E-1,5.004263502E-1,-1.761783618E0,2.015688637E0
8.082043750E-1,3.077986014E-1,9.457409388E-1,-2.273766990E0,2.481769978E0
8.181393750E-1,1.369141333E0,1.355340734E0,-4.453611324E0,4.852437565E0
8.280753750E-1,1.261099990E0,1.824008517E0,-6.007826972E0,6.404011648E0
8.380103750E-1,2.313585359E0,2.551588086E0,-5.886942805E0,6.820511312E0
8.479463750E-1,4.436683635E0,2.994778381E0,-6.616170119E0,8.510379913E0
8.578813750E-1,2.298177946E0,2.928289107E0,-5.113675432E0,6.325043509E0
8.678173750E-1,-1.212045944E-1,1.992152805E0,-4.163968327E0,4.617574643E0
8.777523750E-1,-1.377249666E0,1.277769817E0,-4.444255779E0,4.825030754E0
8.876883750E-1,-2.237130675E0,1.099285898E0,-5.357054089E0,5.908571034E0
8.976233750E-1,-2.429789414E0,6.778805745E-1,-5.241642916E0,5.817062758E0
9.075593750E-1,-2.355339741E0,1.629852891E-1,-4.500955060E0,5.082596379E0
9.174943750E-1,-2.770403759E0,-8.300672257E-1,-3.573218867E0,4.596960046E0
9.274303750E-1,-3.754128211E0,-2.472248386E0,-3.138923357E0,5.482547815E0
9.373663750E-1,-3.971535875E0,-3.556372454E0,-4.652142129E0,7.075542992E0
9.473013750E-1,-3.018307577E0,-3.110533370E0,-5.565727183E0,7.054283631E0
9.572373750E-1,-2.939263746E0,-1.102264470E0,-6.686312149E0,7.386543744E0
9.671723750E-1,-3.482504579E0,1.014864968E0,-5.886452808E0,6.914341307E0
9.771083750E-1,-3.375764242E0,1.060146976E-1,-4.079178438E0,5.295915413E0
9.870433750E-1,-3.697643523E0,-2.025550931E0,-3.377566354E0,5.402164258E0
9.969793750E-1,-4.075767172E0,-2.414574375E0,-3.025935562E0,5.621239496E0
1.006914375E0,-5.062631578E0,-1.635817051E0,-1.906405726E0,5.651594352E0
1.016850375E0,-5.596302858E0,-3.663958883E-1,1.266316876E-1,5.609713648E0
1.026785375E0,-5.145374942E0,1.344441524E0,1.605893048E0,5.555294663E0
1.036721375E0,-4.926318948E0,3.155510738E0,1.999419140E0,6.182519170E0
1.046656375E0,-5.266631577E0,4.730455935E0,1.808788215E0,7.306595399E0
1.056592375E0,-5.000483277E0,5.311735244E0,1.044296343E0,7.369526387E0
1.066527375E0,-3.689234642E0,4.463035866E0,-1.969902103E-1,5.793785164E0
1.076463375E0,-3.473810354E0,3.665866830E0,-1.562033376E0,5.286386881E0
1.086398375E0,-1.392746542E0,4.226913604E0,-2.211230214E-1,4.455944000E0
1.096334375E0,5.947068554E-1,5.516635714E0,9.897412366E-1,5.636180760E0
1.106269375E0,8.494618553E-1,5.516003045E0,1.803039232E0,5.865051195E0
1.116205375E0,1.771225702E0,4.071641961E0,3.288408594E0,5.525318075E0
1.126140375E0,8.972897404E-1,2.918584483E0,3.857189480E0,4.919468970E0
1.136076375E0,1.531204516E-1,2.584572814E0,2.453734932E0,3.567110542E0
1.146012375E0,1.537735856E-1,1.108508711E0,2.828143845E0,3.041518615E0
1.155947375E0,5.326287210E-2,-1.068707299E-1,2.394364497E0,2.397340116E0
1.165883375E0,8.479714000E-1,-8.445572108E-1,2.937898129E0,3.172314265E0
1.175818375E0,8.384357607E-1,-1.292770849E0,3.358845908E0,3.695412944E0
1.185754375E0,7.959779584E-1,-9.975835222E-1,1.227525862E0,1.770755075E0
1.195689375E0,1.804515070E-1,-1.255802413E0,6.445303953E-1,1.423032634E0
1.205625375E0,5.584810156E-1,-2.352401515E0,1.869969971E0,3.056547338E0
1.215560375E0,5.452604610E-1,-3.010070604E0,1.991723034E0,3.650314323E0
1.225496375E0,3.642698407E-1,-3.523090103E0,1.518210248E0,3.853546256E0
1.235431375E0,6.707615894E-1,-4.297180763E0,1.151043112E0,4.498953642E0
1.245367375E0,1.389706575E0,-5.659288480E0,6.312151158E-1,5.861506887E0
1.255302375E0,1.346459398E0,-7.055421730E0,2.127240443E0,7.491133466E0
1.265238375E0,1.007978117E-1,-7.533280751E0,3.221422307E0,8.193780614E0
1.275173375E0,-1.969785743E0,-7.471620108E0,2.972168368E0,8.278825262E0
1.285109375E0,-2.021150317E0,-7.114102632E0,3.314054482E0,8.104224946E0
1.295044375E0,-2.145805645E0,-6.426475918E0,3.246715900E0,7.513004641E0
1.304980375E0,-1.899432921E0,-4.885771431E0,2.563302982E0,5.835163244E0
1.314916375E0,-1.523104660E0,-3.370816913E0,1.875473371E0,4.147246656E0
1.324851500E0,-1.054786833E0,-2.637615246E0,7.676388431E-1,2.942593897E0
1.334787500E0,-4.024337402E-1,-1.685539434E0,5.156691644E-1,1.808012938E0
1.344722500E0,3.569491267E-2,-7.073172122E-1,6.480053955E-1,9.599389346E-1
1.354658500E0,5.291364715E-1,1.245223045E-2,8.660615158E-1,1.014989169E0
1.364593500E0,9.700308573E-1,2.420185947E-1,8.061515290E-1,1.284294807E0
1.374529500E0,9.827772027E-1,-7.320538580E-2,1.209496850E0,1.560157905E0
1.384464500E0,-1.698411494E-1,-9.457000083E-1,1.091964599E0,1.454503767E0
1.394400500E0,-2.680932004E0,-5.285304075E-1,-8.982492685E-2,2.734009752E0
1.404335500E0,-3.909030894E0,-2.471530348E-1,-7.542984205E-1,3.988805994E0
1.414271500E0,-4.731228937E0,-7.668430370E-1,-6.669193840E-1,4.839148372E0
1.424206500E0,-4.230970986E0,-8.188879341E-1,-7.233385831E-1,4.369772493E0
1.434142500E0,-3.347923894E0,-5.709975654E-1,-2.860311717E-1,3.408290840E0
1.444077500E0,-2.349914110E0,-9.248733956E-1,-7.511707449E-1,2.634719076E0
1.454013500E0,-9.950499237E-1,-1.473011856E0,3.736277246E-1,1.816448721E0
1.463948500E0,-3.786534065E-1,-2.009319645E0,1.544352565E0,2.562375594E0
1.473884500E0,-3.294970340E-1,-1.885787274E0,1.867938064E0,2.674687748E0
1.483819500E0,-1.196020480E0,-1.457406222E0,1.242217577E0,2.257787056E0
1.493755500E0,-1.449048212E0,-1.124370453E0,8.701396564E-1,2.030047452E0
1.503691500E0,-3.959231579E-1,-1.564706138E0,5.535541517E-1,1.706306726E0
1.513626500E0,5.404552191E-1,-2.119483527E0,7.548609227E-1,2.313896557E0
1.523562500E0,5.063940185E-1,-1.464456795E0,1.221691511E0,1.973220402E0
1.533497500E0,5.151829684E-1,-9.192156297E-1,1.870545922E0,2.146931045E0
1.543433500E0,3.629325825E-1,-3.224716043E-1,1.512729068E0,1.588728180E0
1.553368500E0,-2.771393108E-1,-1.201018095E-2,2.476611578E-1,3.718689166E-1
1.563304500E0,-2.019868022E-1,1.466826671E-1,-5.529448718E-1,6.066815510E-1
1.573239500E0,8.961735070E-2,4.955181974E-1,-7.013273245E-1,8.633826322E-1
1.583175500E0,3.605130047E-1,7.373607910E-1,-6.640612650E-1,1.055768879E0
1.593110500E0,1.100124389E0,5.061934590E-1,-9.540550947E-2,1.214745941E0
1.603046500E0,1.121679565E0,9.670546246E-1,7.546521771E-1,1.662185189E0
1.612981500E0,1.573781601E0,1.194494357E0,7.553675839E-1,2.115227052E0
1.622917500E0,1.773855194E0,1.208161638E0,1.655045620E-1,2.152581835E0
1.632852500E0,1.306472629E0,1.741827071E0,-2.736567092E-1,2.194474942E0
1.642788500E0,4.427920997E-1,2.190340086E0,-5.959923658E-1,2.312760566E0
1.652723500E0,-6.536812878E-1,2.441979690E0,-7.874112028E-1,2.647750070E0
1.662659500E0,-1.480629609E0,2.559581814E0,-2.003045583E0,3.571542343E0
1.672595500E0,-1.614656562E0,2.888993479E0,-2.352575470E0,4.060543126E0
1.682530500E0,-1.521910366E0,3.203671330E0,-1.824721585E0,3.988650150E0
1.692466500E0,-1.614637851E0,3.627433666E0,-1.643364637E0,4.297205804E0
1.702401500E0,-2.007017012E0,2.956425909E0,-2.126404876E0,4.158144915E0
1.712337500E0,-1.935473405E0,9.916790038E-1,-3.608218546E0,4.212923643E0
1.722272500E0,-1.876664448E0,-7.714231610E-3,-4.481225969E0,4.858324315E0
1.732208500E0,-1.993520468E0,3.783797568E-1,-3.890112813E0,4.387513281E0
1.742143500E0,-1.185725287E0,3.907524651E-1,-2.660046335E0,2.938448306E0
1.752079500E0,5.887035191E-2,1.687822187E-1,-1.291507850E0,1.303819651E0
1.762014500E0,2.120149525E0,9.137204164E-1,-1.193255332E0,2.598803050E0
1.771950500E0,2.720626413E0,2.343454106E0,-1.072340759E0,3.747465801E0
1.781885500E0,3.154865205E0,2.423413026E0,-2.648969954E-1,3.987013365E0
1.791821500E0,3.946264209E0,1.272686248E0,-1.687295938E-1,4.149843511E0
1.801756500E0,4.242196763E0,3.136481559E-1,-3.525537747E-1,4.268360658E0
1.811692500E0,4.045028944E0,-8.045300961E-2,-4.703400868E-1,4.073076435E0
1.821627500E0,4.434087763E0,-3.415235871E-1,-4.071603370E-1,4.465820439E0
1.831563500E0,4.367426873E0,-1.368801025E0,-7.950108290E-2,4.577592616E0
1.841498500E0,3.560566077E0,-2.840903054E0,3.821634901E-1,4.571040350E0
1.851434500E0,2.132299747E0,-3.814017733E0,7.307902747E-1,4.430292078E0
1.861370500E0,4.750047031E-1,-4.955951468E0,1.204773469E0,5.122359176E0
1.871305500E0,-1.553209635E0,-5.440503212E0,6.283163586E-1,5.692654637E0
1.881241500E0,-3.315822680E0,-4.726428958E0,9.746080577E-2,5.774366575E0
1.891176500E0,-5.512549680E0,-3.148889351E0,1.325055665E0,6.485328105E0
1.901112500E0,-7.401823649E0,4.790267104E-1,3.128267391E0,8.050001043E0
1.911047500E0,-7.678298716E0,2.557025412E0,3.411789230E0,8.782650846E0
1.920983500E0,-6.370991689E0,2.255530109E0,3.393933003E0,7.562786021E0
1.930918500E0,-5.084567993E0,1.827896916E0,4.754286847E0,7.197032877E0
1.940854500E0,-6.462477810E0,1.978684913E0,5.107383828E0,8.471374327E0
1.950789500E0,-5.628791742E0,1.467176335E0,5.330938085E0,7.890171338E0
1.960725500E0,-3.558535924E0,1.532065811E0,5.904028369E0,7.061724616E0
1.970660500E0,-1.402218447E0,1.120117189E0,5.452435040E0,5.740202693E0
1.980596500E0,8.397434905E-1,-6.649734306E-1,3.195570597E0,3.370316044E0
1.990531500E0,1.155094063E0,8.896772504E-2,4.536486250E-1,1.244168247E0
2.000467500E0,1.337902875E0,5.321913493E-1,1.984805194E-1,1.453480737E0
2.010402500E0,2.002149789E0,-5.877311271E-1,-1.138123105E0,2.376837365E0
2.020338500E0,2.460489635E0,-3.617379963E-2,-7.007972159E0,7.427448524E0
2.030273500E0,2.350755232E0,1.771137409E0,-8.028900690E0,8.551387266E0
2.040209500E0,4.346299714E-1,2.438395346E0,-4.536693242E0,5.168777481E0
2.050145500E0,4.986946973E-1,3.009052019E0,-2.100444700E0,3.703371220E0
2.060080500E0,9.994294882E-2,2.918744697E0,-1.565580589E0,3.313623663E0
2.070016500E0,2.412382838E-1,2.078985711E0,-1.924779139E0,2.843440211E0
2.079951500E0,3.196614325E-1,5.466094136E-1,-1.762871785E0,1.873147675E0
2.089887500E0,2.527198765E-1,-4.674860609E-1,-1.357498064E0,1.457810532E0
2.099822500E0,1.256405845E-1,-6.734308434E-1,-7.060714629E-1,9.837843097E-1
2.109758500E0,-4.102643314E-1,-7.245588970E-1,3.095746931E-1,8.883349073E-1
2.119693500E0,-6.653476524E-1,-5.951828188E-1,7.612057364E-1,1.173185518E0
2.129629500E0,-5.057502401E-1,-3.655825406E-1,6.821598592E-1,9.245409525E-1
2.139564500E0,-2.766300184E-1,-5.570700824E-2,5.738790733E-1,6.395034234E-1
2.149500500E0,3.156847411E-1,-1.665082365E-1,9.019894400E-1,9.700344316E-1
2.159435500E0,1.304963755E0,-2.434885848E-1,1.857901610E0,2.283421881E0
2.169371500E0,1.769059308E0,-4.580697048E-1,2.788821319E0,3.334205009E0
2.179306500E0,1.400937029E0,-5.646387184E-1,2.887560619E0,3.258749418E0
2.189242500E0,7.624944627E-1,-3.454458994E-1,1.965237486E0,2.136092005E0
2.199177500E0,2.716326955E-1,1.684559441E-1,7.814736477E-1,8.443120207E-1
2.209113500E0,9.864472076E-1,8.843024898E-1,-2.274312535E-1,1.344170362E0
2.219048500E0,1.301084128E0,1.172836854E0,-1.094944633E0,2.065737143E0
2.228984500E0,6.787035701E-1,7.464543808E-1,-3.307217040E0,3.457675119E0
2.238920500E0,1.359257199E0,6.327125877E-1,-4.172321659E0,4.433528322E0
2.248855500E0,4.045152028E0,7.459982979E-1,-2.926856539E0,5.048391585E0
2.258791500E0,4.491013623E0,7.991097271E-2,-2.656558763E0,5.218514500E0
2.268726500E0,2.726860422E0,-6.775326651E-1,-3.957135060E0,4.853219154E0
2.278662500E0,1.969819072E0,-5.253781736E-1,-3.877798576E0,4.381042251E0
2.288597500E0,3.403132135E-1,4.716422617E-2,-3.954739748E0,3.969635251E0
2.298533500E0,-1.824035707E0,8.680542469E-1,-4.515969540E0,4.947181553E0
2.308468500E0,-2.690104532E0,1.003039559E0,-3.270759358E0,4.352081976E0
2.318404583E0,-2.466611670E0,4.474932611E-2,-1.505718842E0,2.890218826E0
2.328339583E0,-1.351451166E0,-7.850910276E-1,1.476307347E0,2.149946873E0
2.338275583E0,-4.470208061E-1,-1.392395709E0,2.729052250E0,3.096178224E0
2.348210583E0,-3.026062739E-1,-1.473640432E0,1.037990633E0,1.827733907E0
2.358146583E0,-1.032156354E-1,-9.238249898E-1,-1.612565013E0,1.861309217E0
2.368081583E0,4.611377388E-1,-1.629695016E-1,-1.921625444E0,1.982889664E0
2.378017583E0,1.013915380E0,-2.254926091E-1,-2.234647948E-1,1.062453683E0
2.387952583E0,2.450586206E0,-8.229020476E-1,1.905518703E0,3.211470390E0
2.397888583E0,3.092511667E0,-2.102938246E0,3.096003039E0,4.855019309E0
2.407823583E0,2.999478958E0,-2.512951439E0,1.800573462E0,4.307419615E0
2.417759583E0,3.182351212E0,-2.309341450E0,3.751438346E-1,3.949829118E0
2.427695583E0,2.643525612E0,-1.330551463E0,-7.358182955E-1,3.049593976E0
2.437630583E0,1.712586899E0,-4.645256156E-1,-1.212711357E0,2.149280524E0
2.447566583E0,-3.112256545E-1,-4.403924024E-1,-4.292895631E-1,6.892723737E-1
2.457501583E0,-1.878250213E0,-7.305435222E-1,-2.570723976E-1,2.031650541E0
2.467437583E0,-1.469552059E0,-5.911406386E-1,-1.357875356E0,2.086349920E0
2.477372583E0,-7.502521473E-1,1.568556529E-1,-1.654159766E0,1.823109024E0
2.487308583E0,-6.062159300E-2,2.349224138E-1,-1.129853534E0,1.155609158E0
2.497243583E0,1.202012706E0,-1.664117575E-2,-5.584418392E-1,1.325506983E0
2.507179583E0,1.657031919E0,5.564736664E-2,4.194359815E-1,1.710198220E0
2.517114583E0,1.123327895E0,8.566504222E-1,1.208809948E0,1.859284001E0
2.527050583E0,1.527874526E0,4.853533977E-1,1.143338821E0,1.969058696E0
2.536985583E0,2.192968410E0,-7.841741842E-1,1.641616319E0,2.849376026E0
2.546921583E0,-4.848978996E-2,-2.792331988E-1,1.869577038E0,1.890936472E0
2.556856583E0,1.042062122E0,1.689699143E-1,1.139285239E0,1.553195143E0
2.566792583E0,9.768767774E-2,2.578563631E-2,1.812188371E0,1.815002610E0
2.576727583E0,-8.997695446E-2,-5.151274198E-1,1.548019061E0,1.633956892E0
2.586663583E0,-5.751245302E-1,-8.812765557E-1,-5.183556676E-4,1.052338758E0
2.596599583E0,-1.230818430E0,-3.202280277E-1,-7.053920165E-1,1.454316985E0
2.606534583E0,-7.469630885E-1,-3.050129879E-1,-8.283995998E-1,1.156387770E0
2.616470583E0,-2.973589826E-1,-5.334292048E-1,-1.020447890E0,1.189236300E0
2.626405583E0,3.501663566E-2,-1.238083595E-1,-7.322912550E-1,7.435086797E-1
2.636341583E0,-1.623385870E-1,8.135465026E-1,1.173565418E-2,8.296682797E-1
2.646276583E0,-1.780974180E-1,7.633475715E-1,7.850272930E-1,1.109362905E0
2.656212583E0,-5.485150212E-1,5.711285430E-1,1.396165263E0,1.605096253E0
2.666147583E0,-1.395667226E0,5.903214437E-1,1.633719508E0,2.228319063E0
2.676083583E0,-1.537489103E0,8.120040071E-1,1.358218149E0,2.206349879E0
2.686018583E0,-9.497831190E-1,1.166577995E0,3.255117179E-1,1.539139393E0
2.695954583E0,-4.804329658E-1,1.260336928E0,-6.101008201E-1,1.480367528E0
2.705889583E0,2.734315914E-1,1.208746945E0,-6.819572532E-1,1.414531621E0
2.715825583E0,1.114504446E0,9.026837969E-1,-4.298241448E-1,1.497233113E0
2.725760583E0,1.846197531E0,9.747437131E-1,3.397173822E-2,2.087995381E0
2.735696583E0,1.421911869E0,1.024718696E0,5.765062273E-1,1.845058590E0
2.745631583E0,1.332165295E0,1.181679599E0,2.817830964E-1,1.802895660E0
2.755567583E0,1.010476048E0,7.981297338E-1,-7.832930088E-3,1.287685626E0
2.765503583E0,8.114146078E-1,4.189442307E-1,3.830008113E-1,9.902512588E-1
2.775438583E0,4.118650067E-1,3.894918054E-1,4.371418621E-1,7.158419224E-1
2.785374583E0,-2.870310456E-1,1.208134156E-1,6.392164457E-1,7.110417477E-1
2.795309583E0,-6.664837664E-1,1.414429772E-1,2.939418697E-1,7.420300193E-1
2.805245583E0,-5.474303627E-1,2.045168924E-1,2.239997419E-1,6.258458641E-1
2.815180583E0,-1.241702437E0,2.086900502E-1,6.076770761E-1,1.398087232E0
2.825116583E0,-7.941618133E-1,-3.104877359E-1,6.336973319E-1,1.062387843E0
2.835051583E0,-3.802426797E-1,-9.334676331E-1,5.774254096E-1,1.161622323E0
2.844987583E0,4.311824530E-1,-1.262936016E0,3.146410862E-1,1.371103461E0
2.854922583E0,7.177480602E-1,-1.238491146E0,3.333485949E-1,1.469742795E0
2.864858583E0,4.357947367E-1,-1.201543175E0,6.605124436E-2,1.279838201E0
2.874793583E0,-1.505716503E-2,-1.234891015E0,-4.179812308E-1,1.303798622E0
2.884729583E0,-5.467041385E-1,-1.035389280E0,-9.647005355E-1,1.517090472E0
2.894664583E0,-9.746443105E-1,-9.527038032E-1,-4.854289364E-1,1.446795535E0
2.904600583E0,-2.178612326E0,-9.965269303E-1,-8.744989749E-1,2.550326655E0
2.914535583E0,-2.234104741E0,-1.107273195E0,-1.182306932E0,2.759552066E0
2.924471583E0,-1.534001239E0,-8.445560414E-1,-2.197243674E-1,1.764855095E0
2.934407583E0,-1.282781466E0,-2.819720346E-1,7.709530449E-1,1.522959328E0
2.944342583E0,-1.166130098E0,-1.261840832E-1,1.277630653E0,1.734393818E0
2.954278583E0,-6.455741233E-1,-2.217164773E-1,1.792220714E0,1.917805838E0
2.964213583E0,-2.039175528E-1,-1.242279557E0,2.115810306E0,2.462010178E0
2.974149583E0,1.068133103E0,-3.211787850E-1,3.532548193E-1,1.169979959E0
2.984084583E0,1.644583197E0,8.594208330E-1,-3.046048522E-1,1.880436698E0
2.994020583E0,2.276940274E0,1.283460912E0,-1.159224463E0,2.859288422E0
3.003955583E0,2.767693575E0,1.459000173E0,-1.126835639E0,3.325442495E0
3.013891583E0,2.963527937E0,4.568885672E-1,-5.860383582E-1,3.055271830E0
3.023826583E0,2.680861253E0,5.303108847E-1,-5.080287538E-2,2.733281476E0
3.033762583E0,2.561362876E0,7.316673571E-1,-4.641454004E-2,2.664220564E0
3.043697583E0,2.325339432E0,7.177316880E-1,-3.433227023E-1,2.457684424E0
3.053633583E0,1.850490557E0,6.873156416E-1,-1.008856369E0,2.216869249E0
3.063568583E0,1.317395228E0,6.858608544E-1,-9.921719241E-1,1.786152408E0
3.073504583E0,5.897507554E-1,7.945553309E-1,-2.677925001E-1,1.025103385E0
3.083439583E0,-1.922564507E-2,7.637381655E-1,-9.961316586E-3,7.640450502E-1
3.093375583E0,-3.321651185E-1,7.784924448E-1,-3.800678845E-1,9.278123459E-1
3.103310583E0,-2.418221283E-1,1.567914505E0,-2.511331980E-1,1.606207247E0
3.113246583E0,-1.609415703E0,-3.080669886E-1,1.083831707E0,1.964641276E0
3.123182583E0,-2.578592282E0,-1.817022264E0,1.653176265E0,3.561418232E0
3.133117583E0,-1.714968470E0,-6.245434427E-1,-3.735203186E-2,1.825531851E0
3.143053583E0,-1.718825294E0,-2.196722907E-1,-3.584846056E-1,1.769499228E0
3.152988583E0,-2.411613345E0,-5.267657179E-1,-2.392563701E-2,2.468589371E0
3.162924583E0,-1.265707011E0,-2.751758158E-2,-2.796711552E-1,1.296528986E0
3.172859583E0,9.903505164E-1,1.252349632E0,2.461981845E-1,1.615483609E0
3.182795583E0,1.477864460E0,1.151837164E0,6.718018091E-1,1.990509956E0
3.192730583E0,7.096376798E-1,3.687248343E-1,1.212676274E0,1.452627752E0
3.202666583E0,7.478211674E-1,-5.577688247E-1,2.624122796E0,2.785024777E0
3.212601583E0,-1.484660679E-1,-1.222673843E0,2.985022302E0,3.229137910E0
3.222537583E0,2.441136521E-1,-7.779042149E-1,1.487760873E0,1.696513736E0
3.232472583E0,2.743396932E0,-6.762731749E-1,1.258061192E0,3.092941981E0
3.242408583E0,5.543398420E0,-2.429599965E0,4.247102066E-1,6.067338856E0
3.252343583E0,6.843446714E0,-2.650393751E0,-2.513518838E-1,7.343059834E0
3.262279583E0,4.412972883E0,-8.912074667E-1,-1.414699475E-1,4.504286199E0
3.272214583E0,3.355350443E0,-5.545896935E-1,-6.802182913E-2,3.401554540E0
3.282150583E0,3.711693798E0,-8.222231859E-1,-7.029874221E-1,3.866123786E0
3.292085583E0,2.111928340E0,-1.814504453E0,-4.041562715E0,4.907840350E0
3.302021583E0,-1.439365808E0,-2.902743207E0,-6.815409315E0,7.546356484E0
3.311957583E0,-2.091738196E0,-1.952292336E0,-5.285895814E0,6.010616324E0
3.321891833E0,-1.886309431E0,-1.613490043E0,-2.861143191E0,3.787829688E0
3.331827833E0,-2.102998472E0,-2.525633465E0,2.845418859E-1,3.298846928E0
3.341762833E0,-3.834055556E0,-3.087113518E0,4.009477873E0,6.348713625E0
3.351698833E0,-3.820573046E0,-4.289487582E0,5.060395603E0,7.655330547E0
3.361633833E0,-2.031183554E0,-5.009861627E0,5.847653024E0,7.963633972E0
3.371569833E0,-1.818546925E0,-4.485604949E0,6.551992249E0,8.145941757E0
3.381504833E0,-1.730048147E0,-3.870091361E0,5.371955134E0,6.843140777E0
3.391440833E0,-1.235943514E-1,-3.663216872E0,3.073633347E0,4.783477329E0
3.401375833E0,-2.498909935E-1,-1.901958919E0,1.155009863E0,2.239183115E0
3.411311833E0,-7.963855094E-1,9.010337126E-1,-5.470817225E-1,1.321132106E0
3.421246833E0,-1.204430822E0,2.002797076E0,-1.719013720E0,2.901182156E0
3.431182833E0,-1.126782430E0,2.699789275E0,-2.316295105E0,3.731450628E0
3.441117833E0,-3.459499294E-1,2.781890615E0,-2.316311331E0,3.636467369E0
3.451053833E0,9.280972579E-1,1.559178180E0,-2.621243627E0,3.187996121E0
3.460988833E0,2.256791646E0,-5.433045673E-1,-5.847053392E-1,2.393777082E0
3.470924833E0,3.266296471E0,-2.379185271E-1,2.024614792E0,3.850241930E0
3.480860833E0,2.995452273E0,7.235459254E0,2.113872977E-1,7.833855342E0
3.490795833E0,-5.780301286E0,8.144779056E0,1.094867742E-1,9.988057678E0
3.500731833E0,-2.949588467E0,4.804765275E0,3.273367217E0,6.519261799E0
3.510666833E0,1.998871402E0,3.079888113E0,4.387820792E0,5.721378241E0
3.520602833E0,3.316226138E0,2.032733066E0,3.399577028E0,5.165896193E0
3.530537833E0,5.253235021E0,2.282176455E0,6.085431218E-1,5.759785785E0
3.540473833E0,5.065590270E0,2.740622136E0,-5.360260264E-1,5.784335603E0
3.550408833E0,3.194390921E0,1.842614942E0,9.121621335E-1,3.798868640E0
3.560344833E0,3.167892802E0,5.418328232E-1,1.896194733E0,3.731579033E0
3.570279833E0,2.499336782E0,-1.823734868E-1,1.578510829E0,2.961695608E0
3.580215833E0,1.920498685E0,-2.563033426E-1,8.654392990E-1,2.122025397E0
3.590150833E0,3.168324326E0,-4.331728452E-1,-1.702778634E-1,3.202329199E0
3.600086833E0,3.569973955E0,-2.230174828E-1,-9.790987194E-1,3.708515220E0
3.610021833E0,2.906666981E0,5.134182787E-1,-1.297025868E0,3.224063797E0
3.619957833E0,1.887748430E0,9.881338370E-1,-5.107952178E-1,2.191098896E0
3.629892833E0,8.889717838E-1,9.327145118E-1,-3.306483507E-1,1.330246415E0
3.639828833E0,6.000392237E-1,1.162773796E0,-8.344334878E-2,1.311126525E0
3.649764833E0,2.695092791E-1,9.995002395E-1,1.937393776E-1,1.053171841E0
3.659699833E0,6.390027300E-1,6.410852158E-1,1.023772616E0,1.366537637E0
3.669635833E0,2.542880997E-1,3.475163984E-1,7.425635704E-1,8.583884557E-1
3.679570833E0,-3.252575102E-1,8.116280311E-1,3.361155339E-1,9.367529883E-1
3.689506833E0,-1.063613497E0,1.090508643E0,-2.406632102E-1,1.542206715E0
3.699441833E0,-1.612930172E0,1.050162855E0,-1.166052476E-1,1.928207080E0
3.709377833E0,-1.499277549E0,7.379613000E-1,3.065905666E-1,1.698946092E0
3.719312833E0,-6.532216966E-2,4.610810208E-1,2.595543945E-1,5.331333579E-1
3.729248833E0,1.773504069E0,4.378529567E-1,-4.537766425E-1,1.882271271E0
3.739183833E0,2.414256286E0,5.259038383E-1,-9.482640123E-1,2.646585139E0
3.749119833E0,2.493491613E0,9.630393416E-1,-1.105592705E0,2.892625179E0
3.759054833E0,2.330241445E0,1.810135413E0,-6.379265499E-1,3.018868280E0
3.768990833E0,2.025253893E0,2.727674646E0,-1.563779354E-1,3.400928750E0
3.778925833E0,1.429726380E0,3.658091787E0,2.654168129E-1,3.936521196E0
3.788861833E0,9.071072155E-1,4.376701727E0,6.966817117E-1,4.523685103E0
3.798796833E0,2.379834312E-1,4.423481206E0,7.873930764E-1,4.499312164E0
3.808732833E0,-9.881233120E-1,2.929657356E0,1.662398859E-1,3.096274471E0
3.818667833E0,-2.358353688E0,-2.145980769E-1,-2.370761772E0,3.350879860E0
3.828603833E0,-1.699177772E0,-3.389028066E0,-4.171305413E0,5.636710493E0
3.838539833E0,-2.412423769E-1,-4.702861755E0,-2.492944021E0,5.328215129E0
3.848474833E0,-7.119753966E-1,-4.131102297E0,-2.013356563E0,4.650432217E0
3.858410833E0,-2.458807099E0,-2.334765728E0,-1.872117069E0,3.873200960E0
3.868345833E0,-3.422643124E0,-1.069504275E0,-1.439678049E0,3.864064988E0
3.878281833E0,-3.943815980E0,-5.702830356E-1,-6.909878393E-1,4.044301104E0
3.888216833E0,-3.957910693E0,-5.488874888E-1,-1.313704904E-1,3.997948566E0
3.898152833E0,-3.703608853E0,-7.750636375E-1,-2.416383795E-1,3.791547347E0
3.908087833E0,-3.105341628E0,-9.874532211E-1,-2.206002438E-1,3.266018211E0
3.918023833E0,-2.366536282E0,-1.370493793E0,-2.916101463E-1,2.750233388E0
3.927958833E0,-2.186592021E0,-1.653210763E0,-4.396416199E-1,2.776252015E0
3.937894833E0,-1.324789032E0,-1.920421502E0,-7.068744318E-1,2.437776895E0
3.947829833E0,-2.105348468E-1,-2.180205107E0,-1.148152103E0,2.473029010E0
3.957765833E0,4.515982988E-1,-2.006873170E0,-1.381571928E0,2.477947122E0
3.967700833E0,-4.301591903E-1,-1.277839984E0,-1.108908076E0,1.745734537E0
3.977636833E0,1.093522298E0,-1.812739763E0,-9.089660454E-1,2.303917476E0
3.987571833E0,1.712049540E0,-2.265887282E0,-1.021772722E0,3.018174663E0
3.997507833E0,1.226596448E0,-1.506547392E0,-9.929529659E-1,2.181783555E0
4.007442833E0,6.045871881E-1,-9.444948971E-1,-2.082390837E-1,1.140596245E0
4.017378833E0,1.310876460E0,-1.084982439E0,5.806635976E-1,1.797986151E0
4.027314833E0,6.890601584E-1,-4.748734331E-1,7.518675868E-1,1.124994910E0
4.037249833E0,1.352603068E0,-5.391050971E-1,9.640761991E-1,1.746313913E0
4.047185833E0,1.151193386E0,-1.541156477E-1,1.178830689E0,1.654883572E0
4.057120833E0,1.007628162E0,-1.461412150E-1,1.110864701E0,1.506881598E0
4.067056833E0,5.673667368E-1,-2.962731546E-1,1.257144641E0,1.410707427E0
4.076991833E0,-2.149717140E-1,-4.516670036E-1,1.596736308E0,1.673255138E0
4.086927833E0,-7.158810443E-1,-7.582026064E-1,1.928737704E0,2.192575197E0
4.096862833E0,-8.039936140E-1,-1.209056262E0,2.292540060E0,2.713662231E0
4.106798833E0,-8.015494779E-1,-1.955401300E0,2.434359306E0,3.223690593E0
4.116733833E0,-7.950029352E-1,-2.306496195E0,2.521271442E0,3.508384820E0
4.126669833E0,-5.258015120E-1,-2.717160183E0,2.474050498E0,3.712189725E0
4.136604833E0,-1.996841687E-1,-3.333807546E0,1.994010611E0,3.889758969E0
4.146540833E0,4.229337859E-1,-4.121391242E0,9.110023382E-1,4.242011788E0
4.156475833E0,1.249567819E0,-5.439385225E0,-2.408818960E-2,5.581120998E0
4.166411833E0,1.771318380E0,-6.455308539E0,-5.394594383E-1,6.715623100E0
4.176346833E0,1.135896777E0,-6.834866509E0,-5.672231877E-1,6.951791412E0
4.186282833E0,8.181994244E-1,-6.181431974E0,-4.800935349E-1,6.253802152E0
4.196218833E0,4.374781501E-1,-4.832551244E0,-9.884107026E-1,4.951958640E0
4.206153833E0,4.074407110E-1,-3.980948138E0,-1.809652433E0,4.391901404E0
4.216089833E0,1.017417862E0,-3.473492850E0,-2.790973095E0,4.570538535E0
4.226024833E0,1.528037956E0,-2.877952182E0,-3.679085338E0,4.914588251E0
4.235960833E0,1.866211089E0,-2.108163902E0,-4.074016808E0,4.952243110E0
4.245895833E0,1.985281157E0,-1.021954132E0,-4.054819522E0,4.628962397E0
4.255831833E0,1.396339071E0,5.636961472E-1,-3.609222220E0,3.910754554E0
4.265766833E0,1.165417323E-1,2.452866036E0,-2.766818539E0,3.699380839E0
4.275702833E0,-1.919201188E0,4.526472893E0,-1.986577192E0,5.302714305E0
4.285637833E0,-4.354197548E0,7.336144214E0,-1.382311601E0,8.642270164E0
4.295573833E0,-6.882715445E0,1.066443491E1,-1.239502130E0,1.275297257E1
4.305508833E0,-8.480988693E0,1.248412000E1,-1.949733302E0,1.521781460E1
4.315444833E0,-9.439513400E0,1.203908257E1,-3.096581037E0,1.560873910E1
4.325380208E0,-9.849580972E0,1.053999564E1,-3.903100356E0,1.494456241E1
4.335316208E0,-8.988779612E0,9.270110207E0,-4.525094705E0,1.368245534E1
4.345251208E0,-7.192939471E0,9.040659617E0,-4.800940904E0,1.251083283E1
4.355187208E0,-6.010190417E0,9.448122255E0,-4.389561216E0,1.202737090E1
4.365122208E0,-5.454412569E0,1.096052739E1,-3.583261168E0,1.275631364E1
4.375058208E0,-5.542332473E0,1.372852677E1,-2.585568595E0,1.502914041E1
4.384994208E0,-5.617029483E0,1.696098804E1,-2.149588209E0,1.799574574E1
4.394929208E0,-6.670887194E0,1.830826371E1,-2.951269834E0,1.970794889E1
4.404865208E0,-7.013666763E0,1.714185060E1,-3.592586307E0,1.886640506E1
4.414800208E0,-6.179753823E0,1.392121358E1,-3.270719305E0,1.557841935E1
4.424736208E0,-5.414123499E0,9.870862498E0,-2.194066809E0,1.146998644E1
4.434671208E0,-4.651376436E0,5.869131017E0,-1.533201925E0,7.644129106E0
4.444607208E0,-3.643128762E0,2.740478879E0,-1.282565703E0,4.735777280E0
4.454542208E0,-2.191177700E0,2.882841039E-1,-5.979853892E-1,2.289531385E0
4.464478208E0,-4.402450526E-1,-2.115219153E0,3.246843369E-1,2.184808387E0
4.474413208E0,1.333020743E0,-4.374605500E0,1.645475628E0,4.860216829E0
4.484349208E0,2.883077851E0,-6.696783342E0,3.082217059E0,7.915750566E0
4.494284208E0,4.146299796E0,-8.615254798E0,3.932384966E0,1.033818498E1
4.504220208E0,4.858521945E0,-1.006237752E1,3.739012574E0,1.178290677E1
4.514155208E0,5.561031868E0,-1.133028776E1,3.396601964E0,1.307047823E1
4.524091208E0,5.511814100E0,-1.276542954E1,3.357045550E0,1.430405680E1
4.534026208E0,5.426918961E0,-1.411189713E1,3.080821913E0,1.543011839E1
4.543962208E0,5.484501756E0,-1.543482031E1,2.558742739E0,1.657892041E1
4.553897208E0,5.173128167E0,-1.661646775E1,2.203722170E0,1.754208217E1
4.563833208E0,4.282714752E0,-1.744329445E1,1.799433839E0,1.805126392E1
4.573769208E0,2.576617385E0,-1.666510255E1,1.239345424E0,1.690859478E1
4.583704208E0,1.279689458E0,-1.407113970E1,8.100742798E-1,1.415241314E1
4.593640208E0,1.481429800E0,-1.139820434E1,1.024265975E0,1.153961946E1
4.603575208E0,2.184306929E0,-8.932266272E0,1.418364656E0,9.304210650E0
4.613511208E0,2.761948978E0,-6.778995194E0,1.628097264E0,7.498922503E0
4.623446208E0,3.350842824E0,-5.348222455E0,1.500215150E0,6.487085367E0
4.633382208E0,3.707531750E0,-4.342783198E0,1.255552444E0,5.846534830E0
4.643317208E0,3.389865387E0,-3.871306998E0,1.237211337E0,5.292343253E0
4.653253208E0,2.447744460E0,-4.118431381E0,1.497109109E0,5.019388973E0
4.663188208E0,1.419995152E0,-5.293314761E0,2.275837781E0,5.934223201E0
4.673124208E0,1.096567528E0,-6.862960042E0,3.296088620E0,7.692001109E0
4.683059208E0,1.637458072E0,-8.021392865E0,4.213688079E0,9.207561005E0
4.692995208E0,2.153428660E0,-9.031594094E0,4.648682332E0,1.038350588E1
4.702930208E0,2.746940345E0,-9.942067552E0,4.500190244E0,1.125353725E1
4.712866208E0,3.523040694E0,-1.069143034E1,4.105957808E0,1.198237822E1
4.722802208E0,4.010805483E0,-1.096566241E1,3.954538604E0,1.232763920E1
4.732737208E0,4.308935713E0,-1.070487426E1,3.729555287E0,1.212727679E1
4.742673208E0,4.464852596E0,-9.893081918E0,3.115034557E0,1.129209541E1
4.752608208E0,4.134829897E0,-9.195113234E0,2.182014236E0,1.031543076E1
4.762544208E0,3.069939953E0,-9.551772923E0,1.582642179E0,1.015704945E1
4.772479208E0,1.533779922E0,-9.828086607E0,1.604875632E0,1.007568325E1
4.782415208E0,2.849403736E-1,-9.227133172E0,6.074865299E-1,9.251498120E0
4.792350208E0,-2.241746467E-1,-6.999367397E0,-5.836366144E-1,7.027234871E0
4.802286208E0,5.942048720E-1,-3.151021246E0,-1.993723074E0,3.775837128E0
4.812221208E0,1.328127208E0,1.443524932E0,-2.932458757E0,3.528030679E0
4.822157208E0,5.215169647E-1,7.195049731E0,-4.854629453E0,8.695294573E0
4.832092208E0,-9.342002892E-1,1.770510002E1,-7.527232976E0,1.926142605E1
4.842028208E0,-5.243464909E0,3.327895543E1,-1.013650034E1,3.518140756E1
4.851963208E0,-1.430562474E1,4.184663260E1,-9.220298946E0,4.517527501E1
4.861899208E0,-1.839856109E1,3.166296512E1,-6.272740924E0,3.715370357E1
4.871834208E0,-8.146249630E0,1.917382002E1,-4.317309219E0,2.127524186E1
4.881770208E0,-7.056920956E0,1.486772927E1,-5.318363063E0,1.729550499E1
4.891705208E0,-1.159131449E1,1.395743591E1,-7.346221890E0,1.957384900E1
4.901641208E0,-1.591698055E1,1.620705507E1,-7.866212440E0,2.403947175E1
4.911576208E0,-1.893373452E1,1.839814009E1,-5.083856971E0,2.688537638E1
4.921512208E0,-1.711809103E1,1.852087782E1,6.332157406E-1,2.522801851E1
4.931448208E0,-8.701379607E0,1.930846503E1,5.168128213E0,2.180000867E1
4.941383208E0,-4.024713086E0,2.076148876E1,3.042536684E0,2.136573801E1
4.951319208E0,-1.004197015E0,2.137281282E1,-1.461915887E0,2.144627561E1
4.961254208E0,2.462553995E0,1.914197375E1,-4.748687553E0,1.987534565E1
4.971190208E0,2.051466960E0,1.111387530E1,-6.191440068E0,1.288645300E1
4.981125208E0,-1.069331490E0,3.612565366E0,-4.632965308E0,5.971471000E0
4.991061208E0,-2.306205880E0,1.308969390E-1,-1.406267351E0,2.704312747E0
5.000996208E0,-1.626578450E0,-3.047344265E0,8.571199536E-2,3.455345290E0
5.010932208E0,-7.275058937E-1,-6.444072529E0,-2.134827206E-1,6.488521438E0
5.020867208E0,-1.450267357E-1,-9.032872295E0,-5.883132175E-1,9.053172212E0
5.030803208E0,1.209014162E-1,-1.103605938E1,9.870012313E-2,1.103716293E1
5.040738208E0,3.411657375E-1,-1.277451027E1,7.314375615E-1,1.279998076E1
5.050674208E0,7.947050196E-1,-1.420800430E1,8.745775469E-1,1.425706240E1
5.060609208E0,2.348812494E0,-1.561935610E1,1.297596556E0,1.584818482E1
5.070545208E0,4.343360903E0,-1.668704598E1,2.196995241E0,1.738243584E1
5.080480208E0,5.698695205E0,-1.778427834E1,2.724878508E0,1.887274877E1
5.090416208E0,5.974046438E0,-1.882658195E1,3.163772854E0,2.000347164E1
5.100352208E0,5.778681607E0,-1.939579787E1,4.038447318E0,2.063732524E1
5.110287208E0,4.494057684E0,-1.802985321E1,4.427750258E0,1.910175734E1
5.120223208E0,2.426240447E0,-1.585200863E1,3.888707142E0,1.650135944E1
5.130158208E0,1.780550841E0,-1.374275422E1,3.447022505E0,1.427990262E1
5.140094208E0,2.001419764E0,-1.157022826E1,2.915983057E0,1.209871151E1
5.150029208E0,2.399618366E0,-9.608442968E0,2.576232053E0,1.023314791E1
5.159965208E0,2.743058086E0,-8.036218480E0,2.707608172E0,8.912705377E0
5.169900208E0,2.497311014E0,-6.795476156E0,2.384951503E0,7.622535809E0
5.179836208E0,1.868514892E0,-5.932247032E0,1.752143898E0,6.461649247E0
5.189771208E0,1.320058196E0,-5.531739072E0,9.687621577E-1,5.768985259E0
5.199707208E0,8.430726027E-1,-5.457906865E0,4.810776213E-1,5.543550707E0
5.209642208E0,4.664788780E-1,-5.728572723E0,6.454343748E-1,5.783660910E0
5.219578208E0,6.681277111E-1,-6.408788676E0,1.145687063E0,6.544582933E0
5.229513208E0,1.412932300E0,-7.147272717E0,1.626178208E0,7.464873779E0
5.239449208E0,2.023465375E0,-7.753116764E0,1.872337070E0,8.228661968E0
5.249384208E0,2.454891219E0,-8.161451222E0,1.943335278E0,8.741414585E0
5.259320208E0,2.935046442E0,-8.306507193E0,2.154867806E0,9.069510165E0
5.269256208E0,3.380189122E0,-8.173193015E0,2.385582271E0,9.160664023E0
5.279191208E0,3.988541332E0,-8.197196420E0,2.337094382E0,9.410871440E0
5.289127208E0,4.361180585E0,-8.029424601E0,2.483218932E0,9.468787239E0
5.299062208E0,3.965759118E0,-6.930564380E0,2.596154687E0,8.396427047E0
5.308998208E0,2.617066669E0,-5.688218164E0,1.481551130E0,6.434272110E0
5.318933208E0,1.457483990E0,-3.862998104E0,-9.286922121E-1,4.231959730E0
5.328869208E0,9.394718465E-1,-1.113603390E0,-2.988649622E0,3.324867881E0
5.338804208E0,-1.547983101E-1,2.512066171E0,-4.546906866E0,5.196999231E0
5.348740208E0,-1.831846417E0,8.003254802E0,-6.935997612E0,1.074782823E1
5.358675208E0,-4.737305363E0,1.789913052E1,-9.530939294E0,2.082449854E1
5.368611208E0,-1.289380399E1,2.959654040E1,-1.167480688E1,3.432938247E1
5.378546208E0,-2.798210544E1,3.380292209E1,-9.405072130E0,4.487862686E1
5.388482208E0,-3.269150906E1,2.584570826E1,-6.085869759E-2,4.167420190E1
5.398417208E0,-1.862829234E1,1.710721170E1,4.813799223E0,2.574573034E1
5.408353208E0,-1.469360972E1,1.466824800E1,8.509154731E-1,2.077940623E1
5.418288208E0,-1.547015270E1,1.516496079E1,-3.041619841E0,2.187585682E1
5.428224208E0,-1.031462757E1,1.817882039E1,-5.060266380E0,2.150505402E1
5.438159208E0,-5.247189585E0,2.037131576E1,-5.798085008E0,2.182066209E1
5.448095208E0,-2.053324621E0,2.079542834E1,-6.511613717E0,2.188760140E1
5.458030208E0,-1.533130296E0,1.865217120E1,-7.351596651E0,2.010721145E1
5.467966208E0,-3.038266463E0,1.377846784E1,-6.972892959E0,1.573843942E1
5.477902208E0,-5.076462582E0,8.563112837E0,-3.323650640E0,1.049495247E1
5.487837208E0,-5.766083196E0,3.944958526E0,-3.695908070E-2,6.986542720E0
5.497773208E0,-4.098849348E0,1.150001138E-1,9.509176250E-1,4.209279669E0
5.507708208E0,-1.856707901E0,-3.158072988E0,4.457288638E-1,3.690455724E0
5.517644208E0,-1.508350673E-1,-6.366851276E0,-6.859742904E-1,6.405474776E0
5.527579208E0,1.780572768E0,-8.970162077E0,-5.208325481E-1,9.159995285E0
5.537515208E0,3.408410124E0,-1.075456156E1,6.974441886E-1,1.130328635E1
5.547450208E0,3.595607271E0,-1.200471263E1,1.852717323E0,1.266783638E1
5.557386208E0,3.798958814E0,-1.326135646E1,1.869331601E0,1.392084997E1
5.567321208E0,5.184846572E0,-1.422972788E1,1.120380606E0,1.518627809E1
5.577257208E0,6.356999887E0,-1.502993454E1,6.633174992E-1,1.633249430E1
5.587192208E0,6.316036048E0,-1.613526646E1,5.856948343E-1,1.733730583E1
5.597128208E0,5.513178256E0,-1.698283324E1,1.261398783E0,1.789980129E1
5.607063208E0,3.826126439E0,-1.699395932E1,2.554654658E0,1.760568537E1
5.616999208E0,1.853716758E0,-1.640390509E1,3.500464886E0,1.687535548E1
5.626935208E0,6.465658110E-1,-1.484669216E1,4.133092982E0,1.542481031E1
5.636870208E0,5.783469307E-1,-1.297465929E1,4.442421800E0,1.372630250E1
5.646806208E0,8.590407640E-1,-1.141339073E1,4.253864590E0,1.221060207E1
5.656741208E0,1.561308613E0,-9.815485858E0,4.117808068E0,1.075814996E1
5.666677208E0,2.309064584E0,-8.106876234E0,3.759431636E0,9.229655885E0
5.676612208E0,2.895584753E0,-6.647831038E0,3.094633037E0,7.883832964E0
5.686548208E0,3.186929874E0,-5.789104854E0,2.292509655E0,6.994702106E0
5.696483208E0,3.175138671E0,-5.435124943E0,1.466038174E0,6.463076408E0
5.706419208E0,3.030053171E0,-5.524660433E0,8.798425260E-1,6.362170855E0
5.716354208E0,2.853593266E0,-5.969980284E0,7.541446388E-1,6.659759249E0
5.726290208E0,2.963618276E0,-6.430232170E0,1.172597411E0,7.176761368E0
5.736225208E0,3.096355627E0,-7.000385982E0,1.453610795E0,7.791393098E0
5.746161208E0,3.298814299E0,-7.673239120E0,1.512299590E0,8.488098988E0
5.756096208E0,3.594071500E0,-8.190038844E0,1.334363263E0,9.042931578E0
5.766032208E0,3.676128109E0,-8.391824502E0,1.303339984E0,9.253935998E0
5.775967208E0,3.835588111E0,-8.445073925E0,1.611963627E0,9.414320820E0
5.785903208E0,4.205078054E0,-8.370546484E0,2.418949554E0,9.674711718E0
5.795838208E0,4.479035602E0,-7.544776962E0,2.760305910E0,9.198081759E0
5.805774208E0,4.137834489E0,-6.074886934E0,1.332295395E0,7.470002446E0
5.815710208E0,3.629754134E0,-3.753852807E0,-1.085416303E0,5.333353028E0
5.825645208E0,2.912729082E0,-4.353988802E-1,-3.500278945E0,4.574441559E0
5.835581208E0,8.516221091E-1,4.834770847E0,-5.470294776E0,7.350128862E0
5.845516208E0,-2.528165017E0,1.322263386E1,-8.009759245E0,1.566479836E1
5.855452208E0,-7.022433493E0,2.610345587E1,-1.138101119E1,2.932971865E1
5.865387208E0,-1.777168812E1,3.910461825E1,-1.494465290E1,4.547907999E1
5.875323208E0,-2.959082650E1,3.628944820E1,-1.092546631E1,4.808229277E1
5.885258208E0,-2.410881390E1,2.579065322E1,-2.279870313E-1,3.530502343E1
5.895194208E0,-1.782886687E1,2.113575032E1,8.221543642E0,2.884756862E1
5.905129208E0,-1.508261094E1,1.762781971E1,1.205782289E1,2.614605656E1
5.915065208E0,-1.146594901E1,1.788382134E1,5.857746488E0,2.203661150E1
5.925000208E0,-7.725601521E0,1.936372472E1,-4.050629407E-2,2.084803096E1
5.934936208E0,-5.426366984E0,1.852799856E1,-3.863169135E0,1.968898842E1
5.944871208E0,-3.935527844E0,1.557880917E1,-7.677193007E0,1.780805905E1
5.954807208E0,-2.621637145E0,1.218532377E1,-1.122420056E1,1.677312657E1
5.964742208E0,-1.925464725E0,7.929855874E0,-1.259776297E1,1.500978549E1
5.974678208E0,-3.466946015E0,3.744631748E0,-9.016850924E0,1.036077131E1
5.984614208E0,-4.485381293E0,1.295088100E-1,-3.450769108E0,5.660673574E0
5.994549208E0,-4.086319934E0,-3.269451921E0,5.914062484E-1,5.266601164E0
6.004485208E0,-1.918893625E0,-6.060428524E0,2.803246108E0,6.947599253E0
6.014420208E0,1.035330223E0,-8.446016496E0,3.877093402E0,9.350879989E0
6.024356208E0,3.411195445E0,-1.081036036E1,4.276719017E0,1.211571175E1
6.034291208E0,4.968289093E0,-1.295309593E1,3.895353380E0,1.440973173E1
6.044227208E0,6.536515839E0,-1.467509626E1,2.831932548E0,1.631270461E1
6.054162208E0,7.949394929E0,-1.625982034E1,1.709529390E0,1.817957997E1
6.064098208E0,8.126438094E0,-1.798003610E1,4.255626941E-1,1.973579991E1
6.074033208E0,6.697435892E0,-1.934378572E1,-3.187413731E-1,2.047289158E1
6.083969208E0,4.161085357E0,-1.921768350E1,2.812861562E-1,1.966502256E1
6.093904208E0,1.688720027E0,-1.633297135E1,1.875228957E0,1.652677258E1
6.103840208E0,-2.524061733E-1,-1.381842771E1,3.400274016E0,1.423286748E1
6.113775208E0,-7.170002013E-1,-1.203662323E1,4.337604904E0,1.281441393E1
6.123711208E0,7.368456513E-2,-1.006737923E1,4.879331016E0,1.118773548E1
6.133646208E0,1.847803177E0,-8.182960204E0,4.684472262E0,9.608303422E0
6.143582208E0,3.893389592E0,-6.008021684E0,3.983408647E0,8.192823172E0
6.153518208E0,5.530982442E0,-3.846708931E0,3.201532710E0,7.459138561E0
6.163453208E0,6.225191367E0,-2.831539907E0,2.490095258E0,7.278131642E0
6.173389208E0,5.974421829E0,-3.235009482E0,2.168775263E0,7.131801223E0
6.183324208E0,5.376939300E0,-4.407240565E0,2.021495887E0,7.240282540E0
6.193260208E0,4.955091342E0,-6.178909485E0,1.615545924E0,8.083430044E0
6.203195208E0,4.568214704E0,-7.545112007E0,1.310538783E0,8.917107866E0
6.213131208E0,4.222759449E0,-8.390291362E0,1.531819643E0,9.517098188E0
6.223066208E0,3.864593517E0,-9.169201298E0,1.758246052E0,1.010449230E1
6.233002208E0,3.540514805E0,-9.646095529E0,2.059633182E0,1.047971817E1
6.242937208E0,2.948890017E0,-9.659593826E0,2.453246397E0,1.039336919E1
6.252873208E0,2.044327510E0,-9.382311258E0,2.700761082E0,9.975026313E0
6.262808208E0,1.229242020E0,-8.902046692E0,2.566687059E0,9.345873620E0
6.272744208E0,4.734601611E-1,-7.973743905E0,1.801564272E0,8.188430265E0
6.282679208E0,1.757757810E-1,-5.854226464E0,8.534610584E-1,5.918721179E0
6.292615208E0,-5.845642751E-1,-2.351950110E0,-6.243782589E-1,2.502645185E0
6.302550208E0,-3.059077873E0,2.074944116E0,-1.988413218E0,4.197277408E0
6.312486208E0,-4.797291364E0,9.093195096E0,-4.640588908E0,1.127986112E1
6.322421833E0,-6.229447555E0,2.569049509E1,-8.453621385E0,2.775376136E1
6.332356833E0,-1.335653978E1,4.363727457E1,-1.280577884E1,4.739827907E1
6.342292833E0,-2.314922734E1,5.057861654E1,-1.367941133E1,5.728184243E1
6.352227833E0,-2.112067386E1,4.274601857E1,-8.711612234E0,4.846851716E1
6.362163833E0,-8.226054769E0,3.164458381E1,-8.727058239E0,3.384093981E1
6.372098833E0,-4.132720807E0,2.046867190E1,-1.033328838E1,2.329855702E1
6.382034833E0,-3.889852611E0,1.332617285E1,-7.126404004E0,1.560459772E1
6.391969833E0,-3.958581369E0,9.314753113E0,-4.518744044E0,1.108395416E1
6.401905833E0,1.590088901E-1,9.494679540E0,-1.371808832E0,9.594586123E0
6.411840833E0,4.730350100E0,1.071682129E1,-1.363937603E0,1.179350653E1
6.421776833E0,4.888605869E0,9.513991140E0,-2.993119526E0,1.110735159E1
6.431711833E0,2.843656215E0,5.069240686E0,-2.834458838E0,6.466663646E0
6.441647833E0,1.325101566E0,-2.526973647E-1,-7.950036661E-1,1.565816384E0
6.451582833E0,2.094317695E-1,-4.682203542E0,2.324270707E0,5.231551012E0
6.461518833E0,-8.480129153E-1,-7.990939397E0,4.991835830E0,9.460056200E0
6.471453833E0,-1.074097847E0,-1.037109648E1,6.119801152E0,1.208988397E1
6.481389833E0,1.204526424E-3,-1.246259055E1,5.191708864E0,1.350074093E1
6.491324833E0,5.616525453E-1,-1.475143283E1,3.958736905E0,1.528371100E1
6.501260833E0,1.267738042E0,-1.706407328E1,2.661049132E0,1.731678201E1
6.511196833E0,2.298121228E0,-1.914126974E1,1.689725017E0,1.935264166E1
6.521131833E0,2.919018639E0,-2.072051849E1,1.677332721E0,2.099223669E1
6.531067833E0,2.892235760E0,-2.166125363E1,2.727855910E0,2.202308185E1
6.541002833E0,2.250145993E0,-2.133111282E1,4.179873046E0,2.185293732E1
6.550938833E0,1.808173965E0,-1.791531210E1,4.747823335E0,1.862175414E1
6.560873833E0,1.565719460E0,-1.370570509E1,4.568531331E0,1.453166570E1
6.570809833E0,8.947426933E-1,-1.101427967E1,3.846073631E0,1.170073517E1
6.580744833E0,1.254291200E0,-8.522685188E0,2.689409298E0,9.024540520E0
6.590680833E0,2.031736993E0,-6.457790682E0,1.448034597E0,6.922992120E0
6.600615833E0,2.516004563E0,-5.067141536E0,4.547283134E-1,5.675647993E0
6.610551833E0,2.443343845E0,-4.515964862E0,6.158755302E-2,5.134945064E0
6.620486833E0,1.910566020E0,-4.554372883E0,3.919572839E-1,4.954412718E0
6.630422833E0,1.202410609E0,-4.839960836E0,1.103088635E0,5.107623391E0
6.640357833E0,1.030537845E0,-5.091850115E0,1.760206331E0,5.485186612E0
6.650293833E0,1.482691629E0,-5.404018925E0,2.149496993E0,6.001844078E0
6.660228833E0,2.462911845E0,-5.822134606E0,2.364634183E0,6.749420785E0
6.670164833E0,3.821618236E0,-6.392905884E0,2.349420897E0,7.809852120E0
6.680100833E0,4.983575469E0,-6.968094149E0,2.008589620E0,8.799135911E0
6.690035833E0,5.689824979E0,-7.338856738E0,1.609445816E0,9.424608339E0
6.699971833E0,6.115650798E0,-7.469200530E0,1.276419403E0,9.737524723E0
6.709906833E0,6.190324420E0,-7.352298902E0,9.083886328E-1,9.654096823E0
6.719842833E0,5.878114679E0,-6.739593732E0,6.333540273E-1,8.965238043E0
6.729777833E0,4.672222637E0,-5.501184447E0,-2.430760637E-1,7.221618978E0
6.739713833E0,3.281533730E0,-2.946447051E0,-1.951405313E0,4.822654512E0
6.749648833E0,1.302985642E0,2.485680610E-1,-3.797784693E0,4.022775937E0
6.759584833E0,-1.421330656E0,6.327031152E0,-5.624209864E0,8.583894258E0
6.769519833E0,-4.902509086E0,1.968769672E1,-7.665644757E0,2.168875532E1
6.779455833E0,-1.375336574E1,3.687126019E1,-1.306803816E1,4.146587174E1
6.789390833E0,-3.131620886E1,4.757431246E1,-1.710836360E1,5.947029719E1
6.799326833E0,-3.595749475E1,4.152597598E1,-1.172446728E1,5.616770641E1
6.809261833E0,-1.593394449E1,3.071180323E1,-1.081252793E0,3.461610250E1
6.819197833E0,-8.237298964E0,2.351289609E1,7.181956061E0,2.592855317E1
6.829132833E0,-1.140353934E1,1.821493396E1,7.476571530E0,2.275354149E1
6.839068833E0,-1.426494917E1,1.651866722E1,-1.208178011E-1,2.182589605E1
6.849003833E0,-1.518356429E1,1.582968513E1,-4.135681544E0,2.232091883E1
6.858939833E0,-1.359965531E1,1.488648714E1,-7.714725115E0,2.158877272E1
6.868875833E0,-8.769478619E0,1.273695009E1,-1.119859677E1,1.909298883E1
6.878810833E0,-1.314089797E0,7.855068816E0,-1.157568956E1,1.405081944E1
6.888746833E0,3.693407508E0,2.629696947E0,-9.060241942E0,1.013136462E1
6.898681833E0,5.784625302E0,-2.312176180E0,-5.479407077E0,8.296502304E0
6.908617833E0,6.288494493E0,-5.991065344E0,2.957404733E-2,8.685557067E0
6.918552833E0,7.654847288E0,-8.831268486E0,7.093230411E0,1.367120725E1
6.928488833E0,7.945491328E0,-1.132230047E1,9.552680411E0,1.681008695E1
6.938423833E0,5.435821347E0,-1.370387140E1,7.008465664E0,1.632368941E1
6.948359833E0,4.415393338E0,-1.557454889E1,4.050606018E0,1.668741084E1
6.958294833E0,4.805257611E0,-1.755321509E1,1.942519738E0,1.830243819E1
6.968230833E0,5.064879248E0,-1.879100983E1,1.320581814E0,1.950638328E1
6.978165833E0,5.463382198E0,-1.940412665E1,1.188292069E0,2.019358101E1
6.988101833E0,4.938005193E0,-1.940506337E1,2.071904733E0,2.013040409E1
6.998036833E0,2.706078832E0,-1.732729739E1,3.802101692E0,1.794475062E1
7.007972833E0,1.343796576E0,-1.443263211E1,4.582619612E0,1.520220581E1
7.017908833E0,1.814123507E0,-1.269001333E1,3.825447285E0,1.337765036E1
7.027843833E0,2.654758113E0,-1.126020538E1,2.530424381E0,1.184242430E1
7.037779833E0,3.229281842E0,-9.757793720E0,1.566583971E0,1.039696998E1
7.047714833E0,4.679473185E0,-8.355068904E0,8.947865474E-1,9.617966970E0
7.057650833E0,5.536278850E0,-7.285516682E0,3.786542836E-1,9.158193922E0
7.067585833E0,5.306410185E0,-6.230841531E0,-2.405310631E-1,8.187748801E0
7.077521833E0,4.832373489E0,-5.102107301E0,-8.840709400E-1,7.082719384E0
7.087456833E0,3.518962846E0,-4.726393290E0,-1.107727231E0,5.995744545E0
7.097392833E0,2.191010762E0,-5.877396056E0,-3.924396792E-1,6.284769006E0
7.107327833E0,2.221318635E0,-7.027412982E0,7.428981042E-1,7.407475095E0
7.117263833E0,2.316847813E0,-7.590782270E0,1.298451565E0,8.041998242E0
7.127198833E0,2.239128377E0,-8.121411828E0,1.181682230E0,8.506903012E0
7.137134833E0,2.081892655E0,-8.758934920E0,5.744095619E-1,9.021261791E0
7.147069833E0,1.735798007E0,-9.327396548E0,4.131642580E-2,9.487624999E0
7.157005833E0,1.236278560E0,-9.587607000E0,1.654995918E-1,9.668401252E0
7.166940833E0,1.079435186E0,-9.641801918E0,1.240822577E0,9.781061559E0
7.176876833E0,1.270383614E0,-9.887604246E0,2.750738404E0,1.034142901E1
7.186812833E0,2.113384881E0,-1.023181580E1,3.612746922E0,1.105479039E1
7.196747833E0,2.804363219E0,-1.055955341E1,3.470205838E0,1.146346151E1
7.206683833E0,1.980394346E0,-1.070117882E1,2.439673694E0,1.115299052E1
7.216618833E0,1.208241161E0,-9.473290426E0,4.758025557E-2,9.550148798E0
7.226554833E0,8.562162665E-1,-6.522972518E0,-2.881059684E0,7.182115404E0
7.236489833E0,-7.040778548E-2,-3.229575080E0,-3.915557849E0,5.076091579E0
7.246425833E0,-2.206510561E0,2.416719133E0,-3.629270861E0,4.886801327E0
7.256360833E0,-6.341912901E0,1.440385445E1,-4.661012063E0,1.641389399E1
7.266296833E0,-1.616256594E1,3.418039962E1,-1.128522444E1,3.945737633E1
7.276231833E0,-3.858867865E1,5.538042955E1,-2.142930160E1,7.081873385E1
7.286167833E0,-3.819255785E1,4.699305244E1,-1.802057134E1,6.318037231E1
7.296102833E0,-1.223515725E1,2.953302326E1,-5.298944460E0,3.240335397E1
7.306038833E0,-8.565589718E0,2.386230932E1,2.138049314E0,2.544308134E1
7.315973833E0,-1.507214559E1,1.896101178E1,1.138210579E1,2.676269554E1
7.325909708E0,-1.672152818E1,1.506665740E1,1.132209698E1,2.519530810E1
7.335844708E0,-1.002420690E1,1.422243055E1,5.536097002E0,1.825953517E1
7.345780708E0,-6.136026006E0,1.411576798E1,8.592553568E-1,1.541570760E1
7.355715708E0,-2.803672662E0,1.306096303E1,-2.811236036E0,1.365109459E1
7.365651708E0,-2.407591045E-3,8.836228094E0,-3.644221022E0,9.558204831E0
7.375587708E0,2.013512684E0,3.634531016E0,-3.573086135E0,5.480054157E0
7.385522708E0,2.631230379E0,-1.116083779E0,-4.436186621E0,5.277193198E0
7.395458708E0,2.769147193E0,-5.523365275E0,-5.328676382E0,8.159076671E0
7.405393708E0,3.916800089E0,-9.005075217E0,-5.397793980E0,1.120575220E1
7.415329708E0,5.876721287E0,-1.181581482E1,-4.237749664E0,1.386029781E1
7.425264708E0,8.107023000E0,-1.430719062E1,-2.194799027E0,1.659025823E1
7.435200708E0,9.029807185E0,-1.656034384E1,7.191679104E-1,1.887590020E1
7.445135708E0,8.169314557E0,-1.869769996E1,2.295418060E0,2.053315924E1
7.455071708E0,6.862539042E0,-1.980338038E1,3.273297050E0,2.121279779E1
7.465006708E0,4.952777599E0,-1.956829658E1,4.992535157E0,2.079359623E1
7.474942708E0,4.595827303E0,-1.750319918E1,4.728042204E0,1.870395662E1
7.484877708E0,3.855888475E0,-1.556050037E1,3.231910458E0,1.635366298E1
7.494813708E0,2.890127254E0,-1.389989580E1,2.313555830E0,1.438445270E1
7.504748708E0,1.786125869E0,-1.188199946E1,2.160405850E0,1.220817391E1
7.514684708E0,3.628898978E-1,-1.012685594E1,2.762948560E0,1.050327497E1
7.524620708E0,-1.069660395E-2,-8.630449373E0,3.534606779E0,9.326211228E0
7.534555708E0,5.794178483E-1,-7.576477057E0,3.101796753E0,8.207306058E0
7.544491708E0,1.453739726E0,-6.775405004E0,1.879492162E0,7.179969564E0
7.554426708E0,1.231122777E0,-5.602076399E0,9.040825970E-1,5.806572880E0
7.564362708E0,7.898822361E-1,-4.316269584E0,6.072102490E-1,4.429763126E0
7.574297708E0,3.536635762E-1,-3.722867827E0,7.336042473E-1,3.810905138E0
7.584233708E0,1.924362525E-1,-4.336260629E0,1.283317363E0,4.526266829E0
7.594168708E0,1.267324643E0,-5.912504493E0,2.241335993E0,6.448829984E0
7.604104708E0,2.439408377E0,-7.872961296E0,2.758183079E0,8.691478970E0
7.614039708E0,3.591000250E0,-9.259108086E0,2.951106112E0,1.036027956E1
7.623975708E0,4.881460572E0,-9.775457574E0,2.869722518E0,1.129705871E1
7.633910708E0,6.127896037E0,-1.013914094E1,1.872582507E0,1.199415916E1
7.643846708E0,7.036387873E0,-1.025242957E1,6.182027221E-1,1.245011008E1
7.653781708E0,6.513052132E0,-9.437313677E0,2.859551579E-2,1.146662789E1
7.663717708E0,4.733119926E0,-8.136115821E0,-7.221995455E-1,9.440358948E0
7.673652708E0,3.545370918E0,-6.611808681E0,-2.066767077E0,7.781850367E0
7.683588708E0,2.615037977E0,-3.958119439E0,-3.276345496E0,5.765377084E0
7.693524708E0,1.819212923E0,-5.518198675E-1,-3.921950025E0,4.358409437E0
7.703459708E0,-9.746022105E-2,3.627899104E0,-4.781789811E0,6.003054572E0
7.713395708E0,-3.025005270E0,1.524139559E1,-6.559316472E0,1.686639941E1
7.723330708E0,-8.611299741E0,3.904295351E1,-1.061688535E1,4.136695489E1
7.733266708E0,-2.846742668E1,5.287719443E1,-1.432862418E1,6.173897913E1
7.743201708E0,-3.434136645E1,3.934182575E1,-5.769424295E0,5.253946098E1
7.753137708E0,-1.103203650E1,2.516797854E1,7.814698470E0,2.856925770E1
7.763072708E0,-9.613403746E0,1.932697965E1,7.915942424E0,2.299155972E1
7.773008708E0,-1.474246320E1,1.631592321E1,4.287628752E-1,2.199394028E1
7.782943708E0,-1.343107073E1,1.327070031E1,-6.858513819E0,2.008841356E1
7.792879708E0,-9.622837644E0,1.054118262E1,-9.410010688E0,1.709572568E1
7.802814708E0,-4.440132322E0,9.648532063E0,-1.051757507E1,1.494751924E1
7.812750708E0,-1.462214095E0,9.150462141E0,-9.757417159E0,1.345645633E1
7.822685708E0,8.428118169E-2,8.417104939E0,-5.618876034E0,1.012059913E1
7.832621708E0,5.785790652E-1,5.671847715E0,-9.470710342E-1,5.779407736E0
7.842556708E0,-1.509470415E-1,1.117774209E0,2.895590308E0,3.107514670E0
7.852492708E0,-4.960845003E-1,-2.232099146E0,4.073822388E0,4.671658729E0
7.862428708E0,2.160335684E-1,-4.878189347E0,3.460609387E0,5.984915968E0
7.872363708E0,1.209972229E0,-7.626851989E0,2.228252263E0,8.037288859E0
7.882299708E0,2.274148813E0,-1.028962488E1,1.731096261E0,1.067917727E1
7.892234708E0,3.539923359E0,-1.255035960E1,1.798806725E0,1.316352115E1
7.902170708E0,4.434145066E0,-1.459923916E1,1.851013006E0,1.536963486E1
7.912105708E0,4.896100830E0,-1.655662735E1,1.762815213E0,1.735514995E1
7.922041708E0,5.238152128E0,-1.806094754E1,1.762883187E0,1.888766319E1
7.931976708E0,4.846667007E0,-1.892217223E1,1.762780129E0,1.961239855E1
7.941912708E0,3.699739165E0,-1.845192278E1,2.430748065E0,1.897551212E1
7.951847708E0,2.388691382E0,-1.671639550E1,3.388309735E0,1.722278630E1
7.961783708E0,1.353956406E0,-1.449243275E1,4.193588860E0,1.514760683E1
7.971718708E0,1.339935367E0,-1.258101889E1,4.363477664E0,1.338347490E1
7.981654708E0,2.316249643E0,-1.116508521E1,3.741900806E0,1.200108169E1
7.991589708E0,3.187915422E0,-9.897160935E0,3.074384129E0,1.084289800E1
8.001525708E0,3.491033035E0,-8.791037888E0,2.386337878E0,9.755217438E0
8.011460708E0,3.722440395E0,-7.862232825E0,1.682835389E0,8.860203295E0
8.021396708E0,4.013164542E0,-7.046369655E0,1.189231278E0,8.195796849E0
8.031332708E0,3.907462086E0,-6.383921052E0,1.123508574E0,7.568684131E0
8.041267708E0,3.546383363E0,-5.891779622E0,1.377976768E0,7.013467191E0
8.051203708E0,2.919454257E0,-5.603141177E0,1.631064142E0,6.525241332E0
8.061138708E0,3.011500541E0,-5.445144732E0,2.114491467E0,6.571895527E0
8.071074708E0,3.414170801E0,-5.635630646E0,2.657356908E0,7.104818138E0
8.081009708E0,3.644040928E0,-6.002586697E0,2.640918338E0,7.502301714E0
8.090945708E0,4.227422604E0,-6.547823185E0,2.094489019E0,8.070438314E0
8.100880708E0,4.895086046E0,-7.118437757E0,1.775871899E0,8.819736079E0
8.110816708E0,5.315796720E0,-7.298989837E0,2.327117278E0,9.324613785E0
8.120751708E0,5.333503844E0,-6.622700289E0,1.862628207E0,8.704929995E0
8.130687708E0,4.835906376E0,-4.913260362E0,-8.217998475E-1,6.942728055E0
8.140622708E0,4.377650438E0,-2.336536265E0,-3.130933721E0,5.867364914E0
8.150558708E0,2.971052426E0,1.567514555E0,-3.809112504E0,5.078739260E0
8.160493708E0,-7.455387068E-1,8.979267361E0,-4.435993663E0,1.004296321E1
8.170429708E0,-7.477742143E0,2.265835125E1,-6.844802098E0,2.482274813E1
8.180364708E0,-1.758936258E1,4.254622155E1,-1.143929857E1,4.743863611E1
8.190300708E0,-3.358292878E1,5.126264721E1,-9.971642768E0,6.208949802E1
8.200236708E0,-2.988684530E1,3.548195240E1,1.632162541E0,4.642043109E1
8.210171708E0,-1.332681253E1,2.220350570E1,9.900969812E0,2.772415555E1
8.220107708E0,-1.132156606E1,1.640572942E1,4.041661533E0,2.033865393E1
8.230042708E0,-1.400705655E1,1.309334958E1,-4.861539693E0,1.978049556E1
8.239978708E0,-1.425379736E1,1.078226800E1,-1.062079831E1,2.079012744E1
8.249913708E0,-1.297765424E1,9.229475566E0,-1.316296419E1,2.066074430E1
8.259849708E0,-9.688573211E0,9.612764645E0,-1.310127373E1,1.891869626E1
8.269784708E0,-5.878652038E0,1.052830121E1,-1.053392974E1,1.601147563E1
8.279720708E0,-2.965208719E0,9.095983633E0,-5.559924406E0,1.106535767E1
8.289655708E0,-1.027872684E0,4.550316669E0,2.096859480E0,5.114559974E0
8.299591708E0,-4.214442077E-1,-9.657425094E-1,7.668857217E0,7.740907235E0
8.309526708E0,-1.686649528E0,-5.145053346E0,7.679696785E0,9.396494201E0
8.319462708E0,-1.643698221E0,-7.828475679E0,4.907191536E0,9.384418153E0
8.329398583E0,6.435790533E-1,-9.852560713E0,2.737654674E0,1.024606752E1
8.339334583E0,2.155910511E0,-1.191287510E1,9.559076388E-1,1.214406450E1
8.349269583E0,3.760420400E0,-1.389351766E1,-6.394432446E-1,1.440761889E1
8.359205583E0,5.321580786E0,-1.611880421E1,-1.157812872E0,1.701398254E1
8.369141583E0,6.713135081E0,-1.838861614E1,-5.890952826E-2,1.957577219E1
8.379076583E0,7.424044822E0,-2.023860735E1,2.030960190E0,2.165277045E1
8.389012583E0,6.478492749E0,-1.974445448E1,3.209874641E0,2.102659378E1
8.398947583E0,4.302317250E0,-1.687125901E1,2.352558367E0,1.756940082E1
8.408883583E0,2.823491215E0,-1.417473014E1,1.803487129E0,1.456528898E1
8.418818583E0,2.551640418E0,-1.210578176E1,2.384879290E0,1.259954245E1
8.428754583E0,1.808099998E0,-1.065819710E1,2.868708318E0,1.118462688E1
8.438689583E0,1.191990579E0,-9.310997447E0,3.071073436E0,9.876588836E0
8.448625583E0,1.178297277E0,-7.326691021E0,3.061824602E0,8.027674363E0
8.458560583E0,1.248759149E0,-5.199648798E0,2.723400332E0,6.001054608E0
8.468496583E0,1.951151251E0,-3.153079466E0,2.240333488E0,4.332204457E0
8.478431583E0,2.649684484E0,-1.715298253E0,1.420638053E0,3.461399781E0
8.488367583E0,3.105830455E0,-1.566892996E0,3.091471155E-1,3.492407252E0
8.498302583E0,3.242530755E0,-2.526666083E0,-2.958702815E-1,4.121357352E0
8.508238583E0,2.796691964E0,-4.018550997E0,-5.482206139E-1,4.926538734E0
8.518174583E0,2.691144459E0,-5.746355860E0,-5.368023174E-1,6.367968349E0
8.528109583E0,3.087559075E0,-7.618096368E0,-1.400510475E-1,8.221193807E0
8.538045583E0,3.588864554E0,-9.608909576E0,1.548240378E-1,1.025841423E1
8.547980583E0,4.539006108E0,-1.199597105E1,-2.042876816E-1,1.282761206E1
8.557916583E0,5.264979154E0,-1.465162437E1,-9.900365210E-1,1.560032931E1
8.567851583E0,4.678580607E0,-1.630640745E1,-9.451109013E-1,1.699062315E1
8.577787583E0,4.561712600E0,-1.708711716E1,-6.687802604E-1,1.769819374E1
8.587722583E0,5.117912325E0,-1.591129238E1,-7.671041152E-1,1.673172736E1
8.597658583E0,5.982753527E0,-1.330331491E1,-1.589224975E0,1.467300799E1
8.607593583E0,5.110731944E0,-1.049474871E1,-3.802734361E0,1.227681230E1
8.617529583E0,3.650251840E0,-6.589595109E0,-6.868710194E0,1.019442406E1
8.627464583E0,9.303270936E-2,-1.034594643E0,-9.053026478E0,9.112427206E0
8.637400583E0,-5.974224193E0,6.349540009E0,-9.686233156E0,1.303192717E1
8.647335583E0,-1.447982265E1,2.516599283E1,-1.017447449E1,3.076544149E1
8.657271583E0,-2.795814355E1,5.930826159E1,2.001104307E-1,6.556803892E1
8.667206583E0,-4.357607527E1,5.605979649E1,6.345720023E0,7.128704848E1
8.677142583E0,-2.551958565E1,2.257646684E1,2.676714993E-1,3.407371061E1
8.687078583E0,-1.283596801E1,1.363011930E1,-1.761715498E0,1.880547443E1
8.697013583E0,-8.527239000E0,1.039220492E1,-1.666411145E0,1.354579840E1
8.706949583E0,-6.337293600E0,9.470673212E0,-4.596990314E-1,1.140465977E1
8.716884583E0,-6.859895516E0,1.132028201E1,-2.936234596E0,1.355833415E1
8.726820583E0,-9.487673407E0,1.172857320E1,-3.612510695E0,1.551211170E1
8.736755583E0,-1.048184742E1,1.115916198E1,-3.750897624E0,1.576278067E1
8.746691583E0,-8.965657382E0,9.643856045E0,-6.592038660E0,1.472555416E1
8.756626583E0,-9.543879767E0,7.637521403E0,-9.461524658E0,1.545761376E1
8.766562583E0,-8.533211346E0,4.975776452E0,-9.787517456E0,1.390573785E1
8.776497583E0,-6.152990533E0,2.778380531E-1,-5.937908306E0,8.555421762E0
8.786433583E0,-4.278838925E0,-3.703198963E0,-4.451806873E0,7.200050662E0
8.796368583E0,-4.414407789E0,-6.931108755E0,-4.158910193E0,9.209983643E0
8.806304583E0,-5.892298855E0,-1.001742413E1,-8.875908177E-1,1.165571917E1
8.816239583E0,-6.262023563E0,-1.268305280E1,3.961058249E0,1.468886483E1
8.826175583E0,-3.978456347E0,-1.406485043E1,5.875974598E0,1.575357769E1
8.836110583E0,-5.171499717E-1,-1.390515011E1,5.402444855E0,1.492672282E1
8.846046583E0,2.371706098E0,-1.312445560E1,4.131619191E0,1.396232795E1
8.855982583E0,4.967028433E0,-1.269904377E1,3.517827609E0,1.408233628E1
8.865917583E0,7.500570257E0,-1.165816220E1,2.537264746E0,1.409287098E1
8.875853583E0,1.013365625E1,-9.152307522E0,3.570988154E-1,1.365954763E1
8.885788583E0,1.258377409E1,-6.402884742E0,-1.076132386E0,1.416002699E1
8.895724583E0,1.311855459E1,-4.386980547E0,-5.570010853E-1,1.384385507E1
8.905659583E0,1.023665612E1,-4.358903972E0,1.481820102E0,1.122430235E1
8.915595583E0,7.399825071E0,-5.306986136E0,2.479458003E0,9.437649332E0
8.925530583E0,5.679908102E0,-6.527543287E0,2.678544002E0,9.057857107E0
8.935466583E0,5.403689142E0,-7.903573809E0,3.044752779E0,1.004673354E1
8.945401583E0,6.120985798E0,-9.153531929E0,3.830409232E0,1.165871557E1
8.955337583E0,6.776952177E0,-9.986856054E0,4.344062569E0,1.282712962E1
8.965272583E0,6.483169352E0,-1.033174588E1,4.166548119E0,1.288939801E1
8.975208583E0,5.893094661E0,-1.060178784E1,3.662894690E0,1.267056698E1
8.985143583E0,5.613132899E0,-1.092654220E1,2.628800569E0,1.256213269E1
8.995079583E0,5.236582736E0,-1.117572130E1,1.317270098E0,1.241183893E1
9.005015583E0,4.474142652E0,-1.144738294E1,-1.294713879E-1,1.229135027E1
9.014950583E0,2.967099709E0,-1.170079074E1,-1.808672148E0,1.220587889E1
9.024886583E0,1.618315457E0,-1.154278260E1,-2.025876767E0,1.183042483E1
9.034821583E0,1.132345471E-1,-1.103590969E1,-1.627717488E0,1.115587688E1
9.044757583E0,-1.448450334E0,-9.762094932E0,-4.762897749E-1,9.880453318E0
9.054692583E0,-3.369969066E0,-7.149515709E0,-2.137122238E-1,7.906828649E0
9.064628583E0,-5.600037475E0,-3.338954265E0,-2.323861256E0,6.921659226E0
9.074563583E0,-7.318469836E0,2.343065851E0,-4.024653736E0,8.674548750E0
9.084499583E0,-1.000709795E1,6.716799531E0,-4.178152503E0,1.275595404E1
9.094434583E0,-1.060114699E1,1.400049013E1,-5.836170262E0,1.850564575E1
9.104370583E0,-1.301524598E1,2.251676911E1,-4.979049139E0,2.648003870E1
9.114305583E0,-1.485191606E1,2.751068421E1,1.633519095E0,3.130631791E1
9.124241583E0,-7.891413939E0,2.586909245E1,4.238272405E0,2.737603534E1
9.134176583E0,2.586533678E0,1.670861987E1,4.442123884E0,1.748143584E1
9.144112583E0,3.002467470E0,7.932395904E0,8.087244208E0,1.171926766E1
9.154048583E0,-2.473195050E0,2.994794753E0,8.681301438E0,9.510545937E0
9.163983583E0,-4.334541840E0,1.652451210E0,4.613035659E0,6.542090335E0
9.173919583E0,-5.854056895E-2,3.121035554E0,-2.854294932E-1,3.134606822E0
9.183854583E0,3.720219915E0,5.644944676E0,-2.406622746E0,7.176159812E0
9.193790583E0,6.020175707E0,9.385837129E0,-3.580943624E0,1.171151619E1
9.203725583E0,7.334429226E0,1.171453871E1,-2.839575151E0,1.410983545E1
9.213661583E0,7.516396916E0,1.103372634E1,-1.381790614E0,1.342194788E1
9.223596583E0,5.889740113E0,9.110721540E0,-8.183050398E-1,1.087951785E1
9.233532583E0,3.050676886E0,7.092809411E0,-1.236125509E-1,7.722036964E0
9.243467583E0,-4.459466726E-2,5.391321112E0,1.620272813E0,5.629708341E0
9.253403583E0,-1.943686988E0,4.050526496E0,3.469913185E0,5.676705164E0
9.263338583E0,-2.552251745E0,2.632539863E0,4.428135005E0,5.749142086E0
9.273274583E0,-2.238971964E0,1.301211305E0,3.751912701E0,4.558837048E0
9.283209583E0,-2.276819236E0,-2.904083973E-1,2.308176684E0,3.255137859E0
9.293145583E0,-3.200777835E0,-2.253138013E0,5.985197517E-1,3.959777209E0
9.303080583E0,-4.196144678E0,-4.416407830E0,-8.242492461E-1,6.147493399E0
9.313016583E0,-3.853922056E0,-6.697080381E0,-1.992555678E0,7.979591404E0
9.322952583E0,-2.201645678E0,-8.749022135E0,-2.441535301E0,9.346321557E0
9.332887458E0,-2.604943344E-1,-9.911106545E0,-1.724528668E0,1.006339353E1
9.342823458E0,1.934524986E0,-1.005662503E1,-9.053372633E-1,1.028094011E1
9.352758458E0,4.570871679E0,-9.318890018E0,-8.452173615E-1,1.041388359E1
9.362694458E0,6.692972127E0,-7.752495790E0,-1.101944042E0,1.030103624E1
9.372629458E0,7.556628683E0,-6.040640377E0,-1.209945624E0,9.749663668E0
9.382565458E0,7.149274803E0,-4.449058097E0,-1.021960564E0,8.482372991E0
9.392500458E0,6.092625048E0,-3.117288659E0,-5.138538963E-1,6.863061589E0
9.402436458E0,4.681498368E0,-2.265252274E0,-9.461028814E-2,5.201609937E0
9.412371458E0,3.082137537E0,-1.589788939E0,7.446312189E-2,3.468795962E0
9.422307458E0,1.644289082E0,-6.828910536E-1,4.014382517E-1,1.825151896E0
9.432242458E0,1.581847250E-1,5.100584686E-1,8.951116526E-1,1.042308457E0
9.442178458E0,-1.501676369E0,1.686838685E0,1.297451545E0,2.604580039E0
9.452113458E0,-2.888906648E0,2.503857265E0,1.622863129E0,4.153163560E0
9.462049458E0,-3.701488360E0,2.777037426E0,1.953560597E0,5.022882832E0
9.471985458E0,-3.699271388E0,2.568124012E0,2.189708587E0,5.007463773E0
9.481920458E0,-3.084286681E0,2.109925668E0,2.277868227E0,4.376447682E0
9.491856458E0,-2.252559431E0,1.633222641E0,2.232631828E0,3.567363882E0
9.501791458E0,-1.526307180E0,1.203590870E0,1.917390305E0,2.730316863E0
9.511727458E0,-9.183145738E-1,7.815370899E-1,1.429800932E0,1.870409737E0
9.521662458E0,-4.371635699E-1,3.452710676E-1,9.336307704E-1,1.087193871E0
9.531598458E0,3.284264088E-2,5.521467268E-2,4.857007223E-1,4.899311082E-1
9.541533458E0,6.201875594E-1,-6.142441571E-2,5.877383631E-2,6.259871656E-1
9.551469458E0,8.797746983E-1,-1.459342235E-1,-2.217282083E-1,9.189470691E-1
9.561404458E0,8.354487106E-1,-3.734090388E-1,-3.909980482E-1,9.951323188E-1
9.571340458E0,7.902105573E-1,-8.454606056E-1,-4.386932381E-1,1.237613881E0
9.581275458E0,7.363229102E-1,-1.447788137E0,-3.891006267E-1,1.670227893E0
9.591211458E0,6.574267218E-1,-2.008752465E0,-2.332495254E-1,2.126429332E0
9.601146458E0,7.769873714E-1,-2.549133425E0,-1.930995826E-1,2.671905320E0
9.611082458E0,1.081049602E0,-3.136385080E0,-2.682240611E-1,3.328291418E0
9.621018458E0,1.502863354E0,-3.839472417E0,-6.765520871E-1,4.178261531E0
9.630953458E0,1.931987879E0,-4.425448794E0,-1.410767076E0,5.030649853E0
9.640889458E0,2.162429572E0,-4.804843628E0,-2.171184608E0,5.698830278E0
9.650824458E0,2.358027121E0,-5.432753897E0,-2.631764522E0,6.480840325E0
9.660760458E0,2.816989988E0,-6.449712169E0,-2.586067362E0,7.498130704E0
9.670695458E0,3.467146282E0,-7.409485255E0,-2.100898152E0,8.446025582E0
9.680631458E0,4.201218307E0,-8.033266806E0,-1.665093475E0,9.217165894E0
9.690566458E0,4.962230208E0,-7.916831785E0,-1.512794557E0,9.465120260E0
9.700502458E0,5.501403133E0,-7.062242507E0,-1.516527420E0,9.079678467E0
9.710437458E0,5.414904102E0,-6.050146780E0,-1.505758603E0,8.257891466E0
9.720373458E0,4.519164459E0,-4.777933572E0,-1.812990024E0,6.821908050E0
9.730308458E0,3.933732164E0,-2.708139099E0,-1.955096076E0,5.160490944E0
9.740244458E0,3.493132478E0,2.053986526E-1,-2.128281248E0,4.095576172E0
9.750179458E0,2.624237694E0,4.248412646E0,-2.389003916E0,5.535609559E0
9.760115458E0,7.257131374E-1,9.749189542E0,-2.540971881E0,1.010098482E1
9.770051458E0,-1.929998072E0,1.446834339E1,-2.983190954E0,1.489823081E1
9.779986458E0,-4.819164044E0,1.893211250E1,-3.485200145E0,1.984429001E1
9.789922458E0,-8.859190695E0,2.116970628E1,-1.931329483E0,2.302980150E1
9.799857458E0,-1.227958206E1,1.900210835E1,4.204130512E0,2.301180068E1
9.809793458E0,-1.345449935E1,1.574179446E1,1.373622756E1,2.484978054E1
9.819728458E0,-1.200129786E1,1.361944112E1,1.592386623E1,2.414725331E1
9.829664458E0,-9.117220720E0,1.207854660E1,1.168005066E1,1.911644802E1
9.839599458E0,-9.202511716E0,1.126806286E1,7.331775759E0,1.629142101E1
9.849535458E0,-9.400842254E0,1.078932091E1,3.800711224E0,1.480644072E1
9.859470458E0,-9.283859349E0,9.830900288E0,1.359931383E0,1.358992488E1
9.869406458E0,-8.319370483E0,8.444378107E0,8.236867440E-1,1.188267254E1
9.879341458E0,-6.202808225E0,6.791224646E0,1.595447874E0,9.334935243E0
9.889277458E0,-3.709931739E0,5.131347472E0,1.936135894E0,6.621400350E0
9.899212458E0,-1.179101561E0,3.630713369E0,1.787910147E0,4.215327123E0
9.909148458E0,1.261710147E0,1.787773322E0,1.208624153E0,2.499763647E0
9.919084458E0,3.459465380E0,-5.937718856E-1,1.692979431E-1,3.514132547E0
9.929019458E0,5.410866015E0,-3.275364041E0,-8.234563637E-1,6.378366642E0
9.938955458E0,6.654238417E0,-6.070049533E0,-1.539252623E0,9.137488105E0
9.948890458E0,7.298498086E0,-9.020453394E0,-2.125490956E0,1.179637086E1
9.958826458E0,8.158077378E0,-1.119069017E1,-2.657387606E0,1.410132908E1
9.968761458E0,8.432051591E0,-1.267439424E1,-3.395432521E0,1.559707426E1
9.978697458E0,7.667618777E0,-1.399452246E1,-4.165342423E0,1.649209247E1
9.988632458E0,5.717657726E0,-1.468740348E1,-4.095394521E0,1.628446153E1
9.998568458E0,4.268056952E0,-1.517994837E1,-3.442558740E0,1.613996138E1
1.000850346E1,2.534152858E0,-1.532294086E1,-1.930779845E0,1.565063443E1
1.001843946E1,1.317307228E0,-1.515737929E1,-2.938211247E-2,1.521454266E1
1.002837446E1,1.564549140E0,-1.562070330E1,1.529312357E0,1.577317285E1
1.003831046E1,8.627631015E-1,-1.527255306E1,2.747911860E0,1.554175848E1
1.004824546E1,1.705565563E-1,-1.369792595E1,3.149303334E0,1.405632870E1
1.005818146E1,5.590382552E-1,-1.207447226E1,2.721630964E0,1.239002337E1
1.006811746E1,1.579871184E0,-1.041923309E1,1.591091698E0,1.065776637E1
1.007805246E1,2.785464140E0,-8.900543958E0,3.387818642E-1,9.332377316E0
1.008798846E1,3.261487721E0,-7.518402511E0,-3.044833032E-1,8.200999241E0
1.009792346E1,3.390645698E0,-6.040432216E0,-6.726519942E-1,6.959580469E0
1.010785946E1,3.469114163E0,-4.513987918E0,-1.048052522E0,5.788717828E0
1.011779446E1,3.789859377E0,-3.610453352E0,-1.441224053E0,5.429137525E0
1.012773046E1,4.177366345E0,-2.838381150E0,-1.425392132E0,5.247717586E0
1.013766546E1,4.376429831E0,-2.038393171E0,-6.782303111E-1,4.875262161E0
1.014760146E1,3.909316531E0,-1.099048501E0,5.774966725E-1,4.101727167E0
1.015753646E1,3.052399768E0,-8.729308248E-3,1.653486167E0,3.471489169E0
1.016747246E1,1.997526104E0,1.256107637E0,1.963271652E0,3.069585072E0
1.017740746E1,1.066829758E0,2.756649939E0,1.360579401E0,3.253985391E0
1.018734346E1,7.553170055E-1,4.161346436E0,5.046977413E-1,4.259345929E0
1.019727846E1,3.047305673E-2,5.634234915E0,2.171422005E-1,5.638500015E0
1.020721446E1,-1.950090567E0,7.717069849E0,3.652356546E-1,7.968024683E0
1.021715046E1,-4.790160685E0,1.096816034E1,-4.481905416E-2,1.196863357E1
1.022708546E1,-6.368314834E0,1.482143804E1,-1.277401150E0,1.618215724E1
1.023702146E1,-6.714230264E0,1.668837213E1,-1.931055833E0,1.809175583E1
1.024695646E1,-6.864764493E0,1.508629118E1,-9.868461339E-1,1.660406692E1
1.025689246E1,-5.916536733E0,1.177087196E1,8.114040828E-1,1.319913672E1
1.026682746E1,-4.853556197E0,1.060178083E1,2.746055076E0,1.197896418E1
1.027676346E1,-5.608983130E0,1.153781948E1,3.441619678E0,1.328257189E1
1.028669846E1,-6.829278910E0,1.349476094E1,1.931310772E0,1.524721563E1
1.029663446E1,-8.002301706E0,1.489618416E1,4.148964956E-2,1.690960841E1
1.030656946E1,-8.737112526E0,1.485142256E1,-1.135652071E0,1.726822495E1
1.031650546E1,-8.633078281E0,1.354283207E1,-1.272306325E0,1.611077603E1
1.032644008E1,-7.682392936E0,1.189232681E1,-2.382904100E-1,1.415992163E1
1.033637608E1,-6.155648092E0,1.055021306E1,9.238705981E-1,1.224959330E1
1.034631108E1,-4.699973815E0,9.218171729E0,1.642843065E0,1.047680186E1
1.035624708E1,-3.317637071E0,7.631776514E0,1.981185329E0,8.554286867E0
1.036618208E1,-1.598219454E0,5.679516338E0,2.095041142E0,6.261022971E0
1.037611808E1,4.023489556E-1,3.458341545E0,1.420985524E0,3.760480127E0
1.038605408E1,2.018965212E0,1.036908386E0,4.294885147E-1,2.309948033E0
1.039598908E1,3.301978812E0,-1.230745339E0,-1.177767373E-1,3.525857275E0
1.040592508E1,4.574020697E0,-3.182500316E0,-5.062285423E-1,5.595198024E0
1.041586008E1,5.522313945E0,-5.123610436E0,-1.373240523E0,7.657226962E0
1.042579608E1,5.857996164E0,-6.961787927E0,-2.277019211E0,9.379095195E0
1.043573108E1,5.971934423E0,-8.539142177E0,-3.193958520E0,1.089873024E1
1.044566708E1,6.191716057E0,-1.092984003E1,-4.256758962E0,1.326343650E1
1.045560208E1,4.810982620E0,-1.300618631E1,-3.893705342E0,1.440372790E1
1.046553808E1,3.161065885E0,-1.412305362E1,-2.617075732E0,1.470721137E1
1.047547308E1,2.784054084E0,-1.490649982E1,-1.747861397E0,1.526465570E1
1.048540908E1,2.589500847E0,-1.539712682E1,-7.735632420E-1,1.563251193E1
1.049534408E1,2.532183516E0,-1.521548190E1,1.019883049E0,1.545842826E1
1.050528008E1,2.989777257E0,-1.457834706E1,2.435515008E0,1.507974484E1
1.051521608E1,3.382217521E0,-1.372101895E1,3.076447027E0,1.446272044E1
1.052515108E1,3.172630801E0,-1.233811152E1,3.430357940E0,1.319325349E1
1.053508708E1,3.218170670E0,-1.074244379E1,3.058880821E0,1.162383211E1
1.054502208E1,3.153886966E0,-9.507929331E0,2.199721359E0,1.025604686E1
1.055495808E1,3.298315239E0,-8.581633308E0,1.163051027E0,9.266930524E0
1.056489308E1,3.684826719E0,-7.878657069E0,1.704054058E-1,8.699438094E0
1.057482908E1,4.178861770E0,-7.484176419E0,-9.433734012E-1,8.623557023E0
1.058476408E1,4.324424111E0,-7.218742064E0,-1.531253486E0,8.553105759E0
1.059470008E1,4.516937839E0,-7.167346208E0,-1.457769042E0,8.596433545E0
1.060463508E1,5.184179989E0,-7.293182382E0,-1.821434573E0,9.131476076E0
1.061457108E1,5.727619627E0,-7.572227885E0,-2.255265230E0,9.758610710E0
1.062450608E1,6.287551922E0,-7.591413769E0,-2.189268876E0,1.009731501E1
1.063444208E1,6.589426124E0,-7.033033326E0,-1.882235237E0,9.819720153E0
1.064437708E1,6.116841291E0,-5.877538143E0,-9.179403520E-1,8.532515250E0
1.065431308E1,5.462355427E0,-3.853329148E0,-4.716378763E-2,6.684885695E0
1.066424908E1,4.600224701E0,-6.748692584E-1,4.232401800E-1,4.668688046E0
1.067418408E1,1.493115168E0,2.864369100E0,1.531812480E0,3.574975905E0
1.068412008E1,-3.948103158E0,8.646411687E0,1.470943111E0,9.618296483E0
1.069405508E1,-9.025758573E0,1.856991725E1,-2.474974358E0,2.079499081E1
1.070399108E1,-1.419219577E1,3.095410483E1,-7.601300826E0,3.489061193E1
1.071392608E1,-1.944889761E1,3.711271746E1,-6.659923664E0,4.242602973E1
1.072386208E1,-1.703223051E1,2.854754289E1,1.293507013E0,3.326758545E1
1.073379708E1,-7.615955703E0,1.753727558E1,7.426271442E0,2.051117558E1
1.074373308E1,-6.721857957E0,1.455631592E1,1.002989156E1,1.891212395E1
1.075366808E1,-8.613901752E0,1.406986500E1,7.315429283E0,1.804649302E1
1.076360408E1,-9.568043970E0,1.526569311E1,1.550412911E0,1.808293759E1
1.077353908E1,-9.428223596E0,1.605853345E1,-3.119156259E0,1.888112901E1
1.078347508E1,-7.906431928E0,1.436751401E1,-4.912468064E0,1.711927180E1
1.079341008E1,-6.371839535E0,1.175032367E1,-3.515259511E0,1.382126965E1
1.080334608E1,-5.791111034E0,1.009467052E1,-9.390489466E-1,1.167566499E1
1.081328208E1,-4.821371952E0,7.947137904E0,1.117138763E0,9.362191377E0
1.082321708E1,-3.859575729E0,5.548642788E0,2.510247102E0,7.210069494E0
1.083315308E1,-2.398860567E0,3.115883573E0,3.060030384E0,4.982674825E0
1.084308808E1,-4.880094954E-1,1.411734205E-1,2.165022958E0,2.223827244E0
1.085302408E1,1.706808096E0,-3.100994223E0,7.453352237E-1,3.617303366E0
1.086295908E1,4.000989178E0,-6.323079604E0,6.262148693E-2,7.482858513E0
1.087289508E1,5.581983612E0,-9.805009986E0,-2.508660167E-2,1.128261456E1
1.088283008E1,6.127973220E0,-1.218386080E1,-3.836004433E-1,1.364352114E1
1.089276608E1,7.011330800E0,-1.393761034E1,-7.064978711E-1,1.561777452E1
1.090270108E1,7.709010631E0,-1.526800393E1,-1.421393806E0,1.716278384E1
1.091263708E1,8.534200695E0,-1.689042618E1,-2.395288211E0,1.907502251E1
1.092257208E1,8.526506928E0,-1.789528656E1,-2.155059156E0,1.993958077E1
1.093250808E1,7.512371693E0,-1.720359720E1,-7.799823153E-1,1.878850333E1
1.094244408E1,5.953444358E0,-1.559262965E1,1.353147736E0,1.674528614E1
1.095237908E1,5.268567005E0,-1.397903202E1,3.006297981E0,1.523840418E1
1.096231508E1,4.217791070E0,-1.241702320E1,3.530787377E0,1.358082052E1
1.097225008E1,2.954244605E0,-1.072747257E1,3.279889201E0,1.160016820E1
1.098218608E1,2.518060736E0,-9.183465580E0,3.144416231E0,1.002816151E1
1.099212108E1,2.522807798E0,-7.971078159E0,3.380115155E0,9.018194091E0
1.100205708E1,2.766197857E0,-6.898672496E0,3.667172513E0,8.288044826E0
1.101199208E1,3.329943998E0,-5.861213887E0,3.313958295E0,7.511635963E0
1.102192808E1,3.385381157E0,-5.000944623E0,2.198463915E0,6.426779620E0
1.103186308E1,3.061241050E0,-4.505165640E0,1.039850413E0,5.545178364E0
1.104179908E1,2.773427647E0,-4.747621021E0,7.666030088E-1,5.551530100E0
1.105173408E1,2.185105074E0,-5.657293410E0,8.980389149E-1,6.130752548E0
1.106167008E1,2.016294789E0,-6.645415553E0,8.899602556E-1,7.001358568E0
1.107160508E1,2.483216301E0,-7.518624120E0,8.491443515E-1,7.963486547E0
1.108154108E1,3.320155759E0,-8.199038293E0,1.026827787E0,8.905169201E0
1.109147708E1,4.172510524E0,-8.626375033E0,1.046661834E0,9.639486048E0
1.110141208E1,4.129903326E0,-8.020661963E0,8.513537219E-1,9.061562943E0
1.111134808E1,2.923670099E0,-6.281387202E0,6.197759154E-1,6.956133568E0
1.112128308E1,2.769416749E0,-3.275355270E0,1.153141093E-1,4.290794637E0
1.113121908E1,1.361787582E0,1.732675593E0,-4.817424497E-1,2.255816020E0
1.114115408E1,-4.124859518E0,8.741790884E0,-1.827431770E0,9.837320812E0
1.115109008E1,-7.317534281E0,1.837267897E1,-5.050011533E0,2.041088575E1
1.116102508E1,-1.086232457E1,3.709381224E1,-1.222587070E1,4.053902954E1
1.117096108E1,-1.938786788E1,5.471327160E1,-1.612923097E1,6.024602561E1
1.118089608E1,-2.456600302E1,4.774314262E1,-4.653163930E0,5.389385963E1
1.119083208E1,-1.413616541E1,2.840218813E1,2.741411218E0,3.184385024E1
1.120076708E1,-7.286567427E0,1.769433998E1,4.171843649E0,1.958540302E1
1.121070308E1,-7.469399335E0,1.158778277E1,1.014368247E0,1.382380479E1
1.122063808E1,-7.888852859E0,7.923267231E0,-5.285473645E0,1.236723068E1
1.123057408E1,-5.403435373E0,5.791881697E0,-1.001504431E1,1.276887309E1
1.124051008E1,-1.897713255E0,6.354317769E0,-1.112929323E1,1.295530153E1
1.125044508E1,-9.141136417E-1,6.704892261E0,-9.124808067E0,1.136016313E1
1.126038108E1,-1.824593239E0,4.749279292E0,-5.497280846E0,7.490319818E0
1.127031608E1,-1.919597922E0,1.977412559E0,-1.610907912E0,3.192184348E0
1.128025208E1,-1.004494931E0,-8.983890170E-1,1.065730189E0,1.718107601E0
1.129018708E1,-1.814227295E-1,-3.976184996E0,1.677584882E0,4.319404168E0
1.130012308E1,3.726073855E-1,-7.058252367E0,1.367712858E0,7.199194483E0
1.131005808E1,1.190373531E0,-1.005358799E1,1.030305272E0,1.017610680E1
1.131999408E1,2.384635753E0,-1.328909331E1,9.951772468E-1,1.353797867E1
1.132992962E1,3.435177800E0,-1.630621215E1,2.115004560E0,1.679780478E1
1.133986563E1,3.982934437E0,-1.879732482E1,3.691092303E0,1.956597428E1
1.134980063E1,3.841247924E0,-2.050654080E1,4.254303131E0,2.129254556E1
1.135973662E1,3.447005256E0,-2.114214718E1,3.272045746E0,2.166976040E1
1.136967262E1,2.583879919E0,-2.008762289E1,2.224349831E0,2.037490517E1
1.137960763E1,2.535295989E0,-1.641495516E1,2.745903926E0,1.683503689E1
1.138954363E1,3.260036150E0,-1.305645365E1,3.694105958E0,1.395511507E1
1.139947862E1,3.128805335E0,-1.111533476E1,4.031908669E0,1.223095978E1
1.140941462E1,3.329082411E0,-9.583055527E0,3.642870023E0,1.077906512E1
1.141934963E1,4.147324228E0,-8.443501609E0,3.231301178E0,9.946573529E0
1.142928562E1,4.685579140E0,-7.554486848E0,2.936602678E0,9.362080896E0
1.143922062E1,4.979947271E0,-6.428275107E0,2.491389831E0,8.504682179E0
1.144915662E1,5.063042638E0,-5.298006567E0,2.130540612E0,7.631675939E0
1.145909163E1,5.062592987E0,-4.091526003E0,1.657622488E0,6.717004176E0
1.146902762E1,4.882176563E0,-3.414503800E0,1.277636793E0,6.093179791E0
1.147896262E1,4.571735605E0,-3.408112793E0,1.380775830E0,5.867072621E0
1.148889863E1,4.305906271E0,-3.768977800E0,1.965608785E0,6.050590084E0
1.149883463E1,4.021866076E0,-4.289992781E0,2.276434782E0,6.305679988E0
1.150876962E1,3.867581736E0,-4.599285931E0,2.394098010E0,6.468641654E0
1.151870562E1,3.563930273E0,-4.850819700E0,2.298517084E0,6.443231451E0
1.152864063E1,3.278675319E0,-5.379984530E0,2.063926207E0,6.629761442E0
1.153857662E1,3.179379657E0,-6.043382721E0,1.810177513E0,7.064536244E0
1.154851162E1,2.646579612E0,-6.251237204E0,1.217982037E0,6.896798567E0
1.155844762E1,1.721252181E0,-5.324269921E0,5.617767987E-1,5.623713402E0
1.156838263E1,5.436948690E-1,-3.154768726E0,-1.586720905E-1,3.205206180E0
1.157831862E1,-1.195535453E0,2.656629807E-1,-1.147865443E0,1.678534156E0
1.158825362E1,-3.512204049E0,6.328352623E0,-2.467520035E0,7.646716899E0
1.159818963E1,-6.176759464E0,1.692777117E1,-4.735996464E0,1.863146417E1
1.160812462E1,-1.295249717E1,3.168659021E1,-1.021425076E1,3.572307519E1
1.161806062E1,-2.545768469E1,3.753222477E1,-1.393027559E1,4.744274638E1
1.162799562E1,-1.838578960E1,2.719330670E1,-7.582697909E0,3.368991683E1
1.163793163E1,-2.006403639E0,1.776326345E1,-8.548424631E-1,1.789664604E1
1.164786762E1,-3.236186526E0,1.438479370E1,-1.789368735E0,1.485250933E1
1.165780262E1,-1.212462265E1,1.492896365E1,-6.741606928E0,2.037963921E1
1.166773862E1,-1.707779436E1,1.659403432E1,-8.424926759E0,2.525851195E1
1.167767363E1,-1.816369364E1,1.569763044E1,-6.440860069E0,2.485598613E1
1.168760962E1,-1.508903001E1,1.383050221E1,-3.509171098E0,2.076718325E1
1.169754462E1,-1.010327996E1,1.355624558E1,-1.335452600E0,1.695970206E1
1.170748063E1,-5.890494404E0,1.431078666E1,3.263108861E-1,1.547911554E1
1.171741562E1,-2.009779821E0,1.271773614E1,1.823180552E0,1.300399996E1
1.172735162E1,7.484020883E-1,8.596550725E0,1.864424472E0,8.828186034E0
1.173728662E1,1.630620923E0,3.087167897E0,4.990551782E-1,3.526838001E0
1.174722263E1,1.401942751E0,-1.460091264E0,-1.149728512E0,2.327914437E0
1.175715762E1,1.392367058E0,-4.988297680E0,-2.123814998E0,5.597534271E0
1.176709362E1,1.721694230E0,-8.050952879E0,-1.428859531E0,8.356058451E0
1.177702863E1,1.578795296E0,-1.053831281E1,-4.949948716E-1,1.066741072E1
1.178696463E1,2.066660073E0,-1.251293859E1,-5.416157453E-1,1.269401684E1
1.179690062E1,3.014816789E0,-1.422171485E1,-1.096666199E0,1.457905931E1
1.180683562E1,4.093059435E0,-1.608237372E1,-8.971964774E-1,1.661929125E1
1.181677163E1,4.876237254E0,-1.779648031E1,-4.869897410E-2,1.845250045E1
1.182670662E1,5.234855468E0,-1.870692102E1,1.101096196E0,1.945674738E1
1.183664262E1,5.482392665E0,-1.894949744E1,2.703073071E0,1.991096900E1
1.184657762E1,5.671772286E0,-1.894546286E1,4.448744102E0,2.027044371E1
1.185651363E1,5.743429914E0,-1.825514526E1,5.402809721E0,1.988536317E1
1.186644862E1,3.841938480E0,-1.567424976E1,5.325594900E0,1.699425073E1
1.187638462E1,2.712316934E0,-1.332087644E1,4.253767526E0,1.424419006E1
1.188631963E1,2.610760446E0,-1.173517120E1,2.655824060E0,1.231193383E1
1.189625563E1,2.559218702E0,-1.025426677E1,1.225550673E0,1.063962226E1
1.190619162E1,2.595282282E0,-8.773969281E0,3.868354154E-1,9.157929280E0
1.191612662E1,2.375903814E0,-7.116643832E0,-1.942795873E-2,7.502793867E0
1.192606263E1,2.189867631E0,-5.626202595E0,-5.750046623E-1,6.064676928E0
1.193599762E1,1.896284488E0,-4.750346408E0,-1.011806436E0,5.213965681E0
1.194593362E1,1.766890284E0,-4.851911375E0,-9.894035599E-1,5.257553107E0
1.195586862E1,1.775544747E0,-5.890285074E0,-4.996890163E-1,6.172333960E0
1.196580463E1,1.735665275E0,-6.715740600E0,9.145176843E-2,6.937007221E0
1.197573962E1,1.930617000E0,-7.307246105E0,5.629045804E-1,7.578917416E0
1.198567562E1,2.442379054E0,-7.705115801E0,7.934288648E-1,8.121795018E0
1.199561063E1,3.511190434E0,-7.680565681E0,9.394101584E-1,8.497178290E0
1.200554663E1,4.140949593E0,-7.379639313E0,1.825596329E0,8.656751231E0
1.201548162E1,4.451391428E0,-6.987357216E0,2.547657588E0,8.667675911E0
1.202541762E1,4.591373186E0,-6.347133295E0,1.261044149E0,7.934547318E0
1.203535263E1,4.078810940E0,-4.962618463E0,-1.337540933E0,6.561501081E0
1.204528862E1,2.689865088E0,-3.037937849E0,-3.346172945E0,5.259402433E0
1.205522462E1,1.108133905E0,-5.364744347E-1,-4.518948696E0,4.683659135E0
1.206515962E1,-5.096725523E-1,4.607027645E0,-5.245344204E0,6.999864688E0
1.207509563E1,-3.752382525E0,1.546647246E1,-6.610569071E0,1.723344912E1
1.208503062E1,-1.282475890E1,3.027680547E1,-1.204345278E1,3.501719784E1
1.209496662E1,-3.148487998E1,3.954041591E1,-1.694509414E1,5.330927098E1
1.210490163E1,-3.392702105E1,3.479298200E1,-9.161553140E0,4.945228417E1
1.211483763E1,-1.452742366E1,2.416613065E1,2.948580407E0,2.835034453E1
1.212477262E1,-1.293316979E1,1.855567460E1,7.655164207E0,2.387847315E1
1.213470862E1,-1.658089797E1,1.676041568E1,7.030648831E0,2.460218962E1
1.214464363E1,-1.376421584E1,1.628198831E1,2.196857393E0,2.143322102E1
1.215457962E1,-1.002643001E1,1.504944787E1,-3.282889992E0,1.837913346E1
1.216451462E1,-6.689988293E0,1.284975341E1,-6.977706971E0,1.607981656E1
1.217445062E1,-2.819358111E0,9.859205489E0,-8.257639089E0,1.316591495E1
1.218438663E1,-6.019661736E-1,5.146569529E0,-9.562111970E0,1.087582303E1
1.219432162E1,-1.452974617E-2,5.420719743E-2,-8.931259382E0,8.931435701E0
1.220425762E1,5.736089319E-1,-3.377937652E0,-5.467867012E0,6.452678486E0
1.221419263E1,8.005963817E-1,-5.449894425E0,-1.511217417E0,5.711924535E0
1.222412863E1,7.647766310E-1,-6.563072723E0,1.705987293E0,6.824162916E0
1.223406362E1,1.356729155E0,-7.411108443E0,4.185064789E0,8.618585130E0
1.224399962E1,2.892864043E0,-8.049041424E0,5.812335842E0,1.034113041E1
1.225393463E1,4.834705066E0,-8.607078052E0,6.635565333E0,1.189482631E1
1.226387062E1,6.023884011E0,-9.352798607E0,6.148892219E0,1.271105408E1
1.227380562E1,6.530876784E0,-1.025715997E1,4.729513364E0,1.304722112E1
1.228374162E1,6.776848097E0,-1.157530013E1,3.224834450E0,1.379539055E1
1.229367663E1,6.606413455E0,-1.296879687E1,2.006123849E0,1.469213817E1
1.230361262E1,6.498391408E0,-1.377954139E1,1.321843936E0,1.529222427E1
1.231354862E1,6.007874334E0,-1.374122809E1,1.253684990E0,1.504950596E1
1.232348363E1,5.088091525E0,-1.326838131E1,1.600954928E0,1.430040819E1
1.233341925E1,3.928749167E0,-1.240767701E1,2.214575772E0,1.320188868E1
1.234335425E1,3.021182945E0,-1.094828215E1,2.985637429E0,1.174335809E1
1.235329025E1,2.697790697E0,-9.738652275E0,3.576560551E0,1.071966455E1
1.236322525E1,2.859236999E0,-9.163956345E0,3.448946239E0,1.020041971E1
1.237316125E1,2.790938304E0,-8.919681895E0,2.621517277E0,9.706823093E0
1.238309625E1,2.602220003E0,-8.770173853E0,1.890089217E0,9.341302672E0
1.239303225E1,2.853765759E0,-8.796185192E0,1.566816398E0,9.379326552E0
1.240296725E1,3.267705065E0,-9.046164771E0,1.611632967E0,9.752351218E0
1.241290325E1,3.525571369E0,-9.407256650E0,1.826766064E0,1.021093558E1
1.242283825E1,3.760818595E0,-9.664332994E0,1.611905155E0,1.049482382E1
1.243277425E1,3.972778701E0,-9.560291147E0,7.730466405E-1,1.038170210E1
1.244271025E1,4.024942004E0,-9.396672020E0,-1.774720582E-1,1.022394736E1
1.245264525E1,3.809761837E0,-9.307267508E0,-4.700904107E-1,1.006779513E1
1.246258125E1,3.544463138E0,-9.522217003E0,-2.441937590E-1,1.016343771E1
1.247251625E1,3.025703135E0,-9.798795565E0,-4.362253842E-1,1.026457825E1
1.248245225E1,2.120383998E0,-9.552448862E0,-1.801637655E0,9.949432436E0
1.249238725E1,6.297685146E-1,-8.040271186E0,-4.125055107E0,9.058622895E0
1.250232325E1,-1.088988074E0,-3.982238034E0,-4.542681375E0,6.138409310E0
1.251225825E1,-2.668297341E0,2.754857183E-1,-3.241449605E0,4.207457501E0
1.252219425E1,-5.084689615E0,4.503282251E0,-2.438993517E0,7.216807389E0
1.253212925E1,-1.013803815E1,1.120141747E1,-2.922429320E0,1.538805264E1
1.254206525E1,-1.652301872E1,2.204623899E1,-4.850380282E0,2.797450607E1
1.255200025E1,-2.300990690E1,3.575630844E1,-8.404753865E0,4.334292671E1
1.256193625E1,-2.500830512E1,4.184289506E1,-8.992119541E0,4.956915781E1
1.257187225E1,-1.359983657E1,3.324425571E1,-4.689000053E0,3.622323583E1
1.258180725E1,-8.352658682E0,2.479391111E1,-1.000458598E-3,2.616304524E1
1.259174325E1,-1.333487233E1,1.967981702E1,1.432734481E-1,2.377255866E1
1.260167825E1,-1.636716236E1,1.455373262E1,-3.596485231E0,2.219526623E1
1.261161425E1,-1.475083057E1,1.020584948E1,-7.050589006E0,1.927322421E1
1.262154925E1,-1.066862269E1,6.721802993E0,-7.745729392E0,1.479859687E1
1.263148525E1,-5.431215495E0,5.544087807E0,-4.688646297E0,9.067437094E0
1.264142025E1,-1.379705497E0,5.791130329E0,-7.308113247E-2,5.953664300E0
1.265135625E1,4.708043557E-1,4.833242970E0,4.013972043E0,6.300306810E0
1.266129125E1,1.108819783E0,3.021194347E0,5.619762472E0,6.476019367E0
1.267122725E1,1.681345226E0,4.736548734E-1,4.147787912E0,4.500601657E0
1.268116225E1,2.330934340E0,-2.033908356E0,2.036196664E0,3.703530067E0
1.269109825E1,3.340770703E0,-4.301629325E0,1.115493211E0,5.559594305E0
1.270103425E1,4.528634024E0,-6.404464660E0,9.316403782E-1,7.898964964E0
1.271096925E1,5.557211298E0,-8.806541780E0,4.541580637E-1,1.042324494E1
1.272090525E1,6.614670893E0,-1.149182528E1,-2.456298351E-2,1.325958230E1
1.273084025E1,7.927486582E0,-1.391912027E1,1.779100147E-1,1.601931973E1
1.274077625E1,8.539779523E0,-1.590314487E1,1.263868647E0,1.809517104E1
1.275071125E1,7.991270349E0,-1.742876646E1,2.426361777E0,1.932639474E1
1.276064725E1,6.540104860E0,-1.818252518E1,3.318330843E0,1.960582855E1
1.277058225E1,4.338120629E0,-1.721668444E1,4.197909952E0,1.824434054E1
1.278051825E1,2.815178229E0,-1.401341364E1,5.169677725E0,1.519955783E1
1.279045325E1,2.915855880E0,-1.183123744E1,5.479386027E0,1.336054139E1
1.280038925E1,3.390833394E0,-1.063216530E1,5.070173902E0,1.225754272E1
1.281032425E1,3.850887351E0,-9.486270075E0,4.116236336E0,1.103458449E1
1.282026025E1,4.072140436E0,-7.975265350E0,3.137957689E0,9.488622851E0
1.283019625E1,4.311430136E0,-6.467696450E0,2.376430356E0,8.128157750E0
1.284013125E1,4.666228364E0,-5.267767106E0,1.879482222E0,7.283921393E0
1.285006725E1,4.855802405E0,-4.152721792E0,1.679349279E0,6.606370356E0
1.286000225E1,4.812530378E0,-3.201647024E0,1.737275890E0,6.035654050E0
1.286993825E1,4.936565609E0,-2.737636548E0,2.122318549E0,6.030635945E0
1.287987325E1,5.276884085E0,-3.287640270E0,2.612756978E0,6.743929360E0
1.288980925E1,5.255680912E0,-4.695098991E0,2.769481069E0,7.572064565E0
1.289974425E1,5.249251898E0,-6.003426942E0,2.138660055E0,8.256491226E0
1.290968025E1,5.555132613E0,-7.034970508E0,1.304149238E0,9.058206977E0
1.291961525E1,5.458813183E0,-7.757422069E0,6.498805976E-1,9.507816958E0
1.292955125E1,5.053777140E0,-8.196221105E0,-4.155499220E-2,9.629144853E0
1.293948625E1,4.430375074E0,-8.252499386E0,-1.386020490E0,9.468527985E0
1.294942225E1,3.092723044E0,-7.844381275E0,-4.196241449E0,9.418476295E0
1.295935825E1,1.712724601E0,-4.802579586E0,-5.476429675E0,7.482611725E0
1.296929325E1,-1.003957572E0,-2.559513402E-1,-4.483820379E0,4.601965567E0
1.297922925E1,-4.771637875E0,6.620951387E0,-2.770592917E0,8.618683797E0
1.298916425E1,-1.147603780E1,1.869456703E1,-1.224197627E0,2.197009194E1
1.299910025E1,-2.228902473E1,3.058039992E1,-2.599801595E0,3.793046864E1
1.300903525E1,-3.292830492E1,3.302267665E1,-5.612605480E0,4.697096740E1
1.301897125E1,-1.871666015E1,2.290951255E1,-5.699174092E0,3.012705956E1
1.302890625E1,-8.976707450E0,1.687999007E1,-4.610319627E0,1.966647880E1
1.303884225E1,-1.509107654E1,1.606360533E1,-3.793258655E0,2.236445435E1
1.304877725E1,-1.876320749E1,1.656913805E1,-1.647907923E0,2.508604974E1
1.305871325E1,-1.765110683E1,1.618338554E1,-9.174430463E-1,2.396466653E1
1.306864825E1,-1.226174922E1,1.518299360E1,-1.489827279E0,1.957277124E1
1.307858425E1,-6.767598971E0,1.440038238E1,-2.233970548E0,1.606742147E1
1.308852025E1,-3.249501806E0,1.343230566E1,-2.920060613E0,1.412490181E1
1.309845525E1,-1.162394604E0,1.159810194E1,-3.380581763E0,1.213653422E1
1.310839125E1,1.407837036E-1,8.518996764E0,-3.413282024E0,9.178432333E0
1.311832625E1,6.098043662E-1,4.774250411E0,-3.622878100E0,6.024165841E0
1.312826225E1,7.528427562E-1,1.008061733E0,-4.068083054E0,4.258199197E0
1.313819725E1,1.256093312E0,-2.433732192E0,-3.819567617E0,4.699991444E0
1.314813325E1,2.191485848E0,-5.245862267E0,-1.853731376E0,5.979799425E0
1.315806825E1,3.622518497E0,-7.663975961E0,1.616577519E0,8.629744531E0
1.316800425E1,4.811723462E0,-9.748154000E0,3.855498465E0,1.153447257E1
1.317793925E1,5.315483894E0,-1.142931504E1,3.123735799E0,1.298619793E1
1.318787525E1,5.850611715E0,-1.283075814E1,1.689836114E0,1.420258984E1
1.319781025E1,6.847643845E0,-1.414331305E1,1.186179177E0,1.575850727E1
1.320774625E1,7.036286716E0,-1.528516434E1,1.818781106E0,1.692493853E1
1.321768225E1,6.798880405E0,-1.622356761E1,2.786240066E0,1.780988642E1
1.322761725E1,6.268620976E0,-1.683507410E1,3.931221077E0,1.838939444E1
1.323755325E1,5.231851754E0,-1.701743472E1,4.667366525E0,1.840515329E1
1.324748825E1,3.900939225E0,-1.623478140E1,5.177035276E0,1.748105111E1
1.325742425E1,2.718615848E0,-1.501576440E1,5.761320055E0,1.631124954E1
1.326735925E1,2.242100224E0,-1.368009078E1,5.294288907E0,1.483918435E1
1.327729525E1,2.438695309E0,-1.228067081E1,4.212189145E0,1.321002073E1
1.328723025E1,2.579990351E0,-1.069952990E1,3.273784708E0,1.148276781E1
1.329716625E1,2.846680395E0,-8.917852886E0,2.531379232E0,9.697400176E0
1.330710125E1,3.253080594E0,-6.850696092E0,1.210023684E0,7.679760908E0
1.331703725E1,3.465793236E0,-4.886030463E0,3.532560253E-1,6.000817133E0
1.332697325E1,3.475569196E0,-3.577683216E0,3.268339196E-1,4.998621695E0
1.333690812E1,3.102072449E0,-2.966962007E0,8.251263285E-1,4.371104035E0
1.334684413E1,2.782570938E0,-3.528302895E0,1.940397637E0,4.894564877E0
1.335677912E1,2.971342448E0,-4.569756907E0,2.734336087E0,6.098208587E0
1.336671512E1,3.380538493E0,-5.464836400E0,2.649283657E0,6.950624525E0
1.337665013E1,3.918183833E0,-6.062156961E0,1.836291178E0,7.448078736E0
1.338658613E1,4.361943939E0,-6.173755749E0,1.100285480E0,7.638877085E0
1.339652112E1,4.479208095E0,-5.707983508E0,1.408395445E0,7.391072900E0
1.340645712E1,4.286316052E0,-5.462446643E0,1.993371657E0,7.223874251E0
1.341639213E1,3.364187047E0,-5.384043083E0,1.818968802E0,6.604114014E0
1.342632813E1,2.120693024E0,-3.975706694E0,4.453213128E-1,4.527901687E0
1.343626412E1,6.265393898E-1,-8.630303192E-1,-1.216193959E0,1.617560102E0
1.344619912E1,-1.142250654E0,3.804331820E0,-2.104502083E0,4.495175878E0
1.345613513E1,-5.638989871E0,1.210530813E1,-1.816864389E0,1.347730270E1
1.346607012E1,-1.248410713E1,2.612415501E1,-3.303067856E0,2.914163110E1
1.347600612E1,-2.378762167E1,4.112743911E1,-8.722850583E0,4.830533423E1
1.348594112E1,-3.067553646E1,3.747472326E1,-9.844465828E0,4.941919594E1
1.349587713E1,-9.439663088E0,2.400497671E1,-3.274852409E0,2.600136158E1
1.350581212E1,-1.710191880E0,2.100548138E1,-3.929008199E0,2.143809949E1
1.351574812E1,-8.138389803E0,1.943559753E1,-9.956525377E0,2.330468274E1
1.352568313E1,-1.244216973E1,1.891640688E1,-1.224445666E1,2.574033325E1
1.353561913E1,-1.091770121E1,1.748030967E1,-8.693494052E0,2.236815291E1
1.354555412E1,-8.348987215E0,1.480693460E1,-2.972730577E0,1.725653577E1
1.355549012E1,-5.921568847E0,1.275437948E1,5.264452904E-1,1.407182710E1
1.356542513E1,-1.966480312E0,1.269463496E1,7.511862400E-1,1.286798673E1
1.357536112E1,4.027912974E-1,1.030109712E1,5.957654938E-1,1.032616963E1
1.358529712E1,1.428181254E0,5.439995089E0,-3.833396575E-1,5.637392798E0
1.359523212E1,8.399458042E-1,1.327247787E-1,-2.061475932E0,2.229979336E0
1.360516813E1,2.209662795E-2,-4.427705235E0,-2.763766000E0,5.219527221E0
1.361510312E1,1.472723588E-1,-7.974772430E0,-1.788110999E0,8.174107009E0
1.362503912E1,1.430255261E-1,-1.042305717E1,1.175111568E0,1.049006503E1
1.363497413E1,8.340737379E-1,-1.220994289E1,3.670815328E0,1.277706028E1
1.364491013E1,2.227899676E0,-1.359898171E1,3.634942660E0,1.425161916E1
1.365484512E1,3.246215671E0,-1.518790526E1,2.679480726E0,1.576039338E1
1.366478112E1,4.356275064E0,-1.698650763E1,2.125487302E0,1.766454840E1
1.367471613E1,5.584279228E0,-1.838795424E1,1.985287881E0,1.931948249E1
1.368465212E1,6.018285302E0,-1.917410771E1,2.146108239E0,2.021068888E1
1.369458712E1,5.980229284E0,-1.911053444E1,2.441900167E0,2.017271785E1
1.370452312E1,5.629420903E0,-1.795722027E1,3.366375368E0,1.911765212E1
1.371445913E1,5.207695152E0,-1.518142771E1,3.870206552E0,1.650982541E1
1.372439412E1,5.024382017E0,-1.244735621E1,3.179655061E0,1.379461118E1
1.373433012E1,4.896456926E0,-1.079116045E1,1.873015347E0,1.199719220E1
1.374426513E1,5.495947680E0,-9.186097997E0,6.427446556E-1,1.072394321E1
1.375420113E1,5.414896501E0,-7.667771389E0,1.564963415E-2,9.387015878E0
1.376413612E1,4.935437096E0,-6.560228637E0,1.779351577E-2,8.209473535E0
1.377407212E1,4.050023343E0,-5.914678488E0,3.189819860E-1,7.175504178E0
1.378400713E1,3.062212565E0,-5.744771265E0,4.715908062E-1,6.527016207E0
1.379394312E1,2.082967958E0,-5.969845798E0,8.393958735E-1,6.378275613E0
1.380387812E1,1.043333307E0,-6.259459559E0,1.391057574E0,6.496492864E0
1.381381412E1,5.327380639E-1,-6.720365748E0,1.820065740E0,6.982819268E0
1.382375013E1,7.668351433E-1,-7.154933154E0,1.893283989E0,7.440808346E0
1.383368512E1,1.064655471E0,-7.691564294E0,1.838650530E0,7.979617054E0
1.384362112E1,1.762833193E0,-8.143385664E0,2.123767197E0,8.598412531E0
1.385355613E1,2.742856942E0,-8.473519460E0,2.220528968E0,9.179027462E0
1.386349213E1,3.334023016E0,-8.625783879E0,1.282152013E0,9.336153961E0
1.387342712E1,3.112567909E0,-8.137043774E0,-1.334982191E0,8.813724401E0
1.388336312E1,1.921092470E0,-7.378793805E0,-3.352926479E0,8.329424366E0
1.389329813E1,6.096997011E-1,-5.532317362E0,-4.291762733E0,7.028335257E0
1.390323412E1,-2.683146930E-1,-2.153854630E0,-4.811853562E0,5.278732542E0
1.391316912E1,-2.162064998E0,2.802434222E0,-5.342230813E0,6.408400166E0
1.392310512E1,-6.061690353E0,1.253195607E1,-7.200319827E0,1.567286248E1
1.393304113E1,-1.362311668E1,2.830498168E1,-1.040141546E1,3.309003988E1
1.394297612E1,-2.791656517E1,3.765949527E1,-1.223709034E1,4.844913389E1
1.395291212E1,-2.827169698E1,3.036802671E1,-4.407152272E0,4.172443993E1
1.396284713E1,-9.395608996E0,2.295266500E1,4.603814892E0,2.522493628E1
1.397278313E1,-1.248663079E1,2.243854038E1,7.267203203E-1,2.568914489E1
1.398271812E1,-1.612787675E1,2.120339092E1,-3.074254613E0,2.681684613E1
1.399265412E1,-1.603358923E1,1.936312246E1,-3.717810570E0,2.541315821E1
1.400258913E1,-1.302908868E1,1.629560296E1,-3.147938301E0,2.110007923E1
1.401252512E1,-8.678455598E0,1.313602256E1,-1.510017715E0,1.581615737E1
1.402246012E1,-6.033848251E0,1.099604221E1,-5.251429693E-1,1.255372630E1
1.403239612E1,-4.029664800E0,9.371644768E0,-1.016447517E0,1.025178470E1
1.404233113E1,-1.877700283E0,7.632944203E0,-2.066394171E0,8.127581462E0
1.405226712E1,1.761204743E-1,4.901592243E0,-2.200155222E0,5.375621633E0
1.406220312E1,1.522017370E0,1.344645592E0,-1.777295989E0,2.698775588E0
1.407213813E1,2.009294210E0,-2.615226842E0,-1.907673695E0,3.809972911E0
1.408207413E1,2.675521576E0,-5.787552418E0,-2.175234097E0,6.736900034E0
1.409200912E1,3.633682878E0,-8.166617821E0,-1.636146834E0,9.087038811E0
1.410194512E1,4.294805917E0,-1.011353715E1,-4.370162201E-1,1.099636189E1
1.411188013E1,4.749888572E0,-1.190417444E1,8.013421941E-1,1.284184410E1
1.412181612E1,4.619617869E0,-1.365998220E1,1.590328052E0,1.450741625E1
1.413175112E1,4.626469344E0,-1.534496381E1,1.731741793E0,1.612051682E1
1.414168712E1,5.178333943E0,-1.683064892E1,1.994676902E0,1.772186845E1
1.415162213E1,5.309492837E0,-1.809047714E1,2.281394098E0,1.899107255E1
1.416155812E1,4.343876628E0,-1.899156816E1,2.834023805E0,1.968706723E1
1.417149412E1,3.588799358E0,-1.948586487E1,4.128370478E0,2.023911691E1
1.418142913E1,3.111247023E0,-1.812135863E1,5.219638674E0,1.911303546E1
1.419136513E1,2.643087655E0,-1.502732902E1,5.829686285E0,1.633376173E1
1.420130012E1,3.435290651E0,-1.268778320E1,5.157548261E0,1.412024675E1
1.421123612E1,4.227693037E0,-1.074445757E1,3.531535821E0,1.207429096E1
1.422117113E1,4.672674919E0,-8.707957724E0,1.921427954E0,1.006748747E1
1.423110713E1,4.977558099E0,-6.783060179E0,1.109979286E0,8.486344563E0
1.424104212E1,5.022417938E0,-4.840309330E0,8.738760272E-1,7.029718035E0
1.425097812E1,4.790745406E0,-2.966933355E0,5.977933082E-1,5.666682620E0
1.426091313E1,4.230340072E0,-2.000015556E0,5.079464543E-1,4.706787540E0
1.427084912E1,3.669517831E0,-2.391265619E0,1.063885978E0,4.507257009E0
1.428078512E1,3.183195257E0,-3.897331785E0,1.749871670E0,5.327661584E0
1.429072013E1,2.877494345E0,-5.254153034E0,1.877330446E0,6.277775674E0
1.430065613E1,2.921909795E0,-6.409587990E0,2.009947636E0,7.325316686E0
1.431059112E1,3.307734519E0,-7.598659054E0,2.641177955E0,8.698077262E0
1.432052712E1,3.955915331E0,-8.520583699E0,3.426627124E0,9.999569297E0
1.433046171E1,4.595582889E0,-8.638932513E0,3.602875360E0,1.042742768E1
1.434039771E1,4.347246670E0,-8.054085233E0,2.502818799E0,9.488463758E0
1.435033271E1,3.788355180E0,-7.102794117E0,4.132820794E-1,8.060528600E0
1.436026871E1,2.550456942E0,-5.928522940E0,-1.163365242E0,6.557868065E0
1.437020371E1,1.040564066E0,-4.241549184E0,-1.996667440E0,4.802103073E0
1.438013971E1,-2.383167225E-1,-1.795619116E0,-2.995729431E0,3.500776727E0
1.439007571E1,-2.431395352E0,3.623691448E0,-4.179238331E0,6.042255878E0
1.440001071E1,-4.708107292E0,1.523327848E1,-5.926203350E0,1.700996572E1
1.440994671E1,-1.082560640E1,3.258264560E1,-1.074976801E1,3.597749380E1
1.441988171E1,-3.064544902E1,4.166505083E1,-1.843346897E1,5.490822147E1
1.442981771E1,-3.378965592E1,3.008335852E1,-1.393160876E1,4.733750131E1
1.443975271E1,-1.167555649E1,1.703966700E1,-3.232466235E0,2.090736016E1
1.444968871E1,-9.549621148E0,1.282550384E1,-1.449622993E0,1.605584690E1
1.445962371E1,-1.527762611E1,1.077524082E1,-1.768618720E0,1.877870300E1
1.446955971E1,-1.800186142E1,1.174549387E1,-1.460660198E0,2.154430712E1
1.447949471E1,-1.845664499E1,1.233796650E1,-9.495273033E-1,2.222104327E1
1.448943071E1,-1.539825767E1,1.422743460E1,1.316367288E0,2.100616713E1
1.449936571E1,-1.111143467E1,1.665037693E1,1.257963251E0,2.005695649E1
1.450930171E1,-8.447315748E0,1.645908176E1,-2.314452793E0,1.864444173E1
1.451923771E1,-5.332201084E0,1.359749535E1,-4.516959766E0,1.528813833E1
1.452917271E1,-1.754385720E0,8.915751396E0,-5.242010121E0,1.049033662E1
1.453910871E1,5.809553736E-1,3.102082390E0,-5.775126500E0,6.581224080E0
1.454904371E1,8.527026746E-1,-2.246846994E0,-5.195014880E0,5.723949935E0
1.455897971E1,1.332428712E0,-5.935065390E0,-3.074148194E0,6.815479042E0
1.456891471E1,2.879591449E0,-8.350213376E0,1.111401037E0,8.902433521E0
1.457885071E1,4.252772330E0,-1.027370174E1,4.046453033E0,1.183253152E1
1.458878571E1,5.734042209E0,-1.182316594E1,4.795379909E0,1.398792913E1
1.459872171E1,6.838557272E0,-1.313250488E1,3.210020529E0,1.515033933E1
1.460865671E1,8.035048453E0,-1.418658946E1,1.966629124E0,1.642220918E1
1.461859271E1,9.376249450E0,-1.507360506E1,1.946940379E0,1.785828099E1
1.462852871E1,9.688229395E0,-1.615818170E1,2.408867200E0,1.899345324E1
1.463846371E1,8.560837101E0,-1.680372834E1,3.207876062E0,1.912965465E1
1.464839971E1,6.198645008E0,-1.592484271E1,4.261214248E0,1.761197781E1
1.465833471E1,4.210624723E0,-1.448715973E1,4.888411449E0,1.585886894E1
1.466827071E1,2.659006992E0,-1.265675670E1,4.850742224E0,1.381280234E1
1.467820571E1,1.662956902E0,-1.119109830E1,4.459126418E0,1.216099977E1
1.468814171E1,2.168011324E0,-9.770925981E0,3.889077855E0,1.073760654E1
1.469807671E1,3.332032039E0,-8.153383234E0,3.125236194E0,9.345972230E0
1.470801271E1,4.354459211E0,-6.530338840E0,2.730397987E0,8.310337752E0
1.471794771E1,4.913390170E0,-5.083466377E0,2.549146581E0,7.515396308E0
1.472788371E1,4.787340280E0,-4.465091747E0,2.371576582E0,6.962761431E0
1.473781971E1,4.494150655E0,-4.869961145E0,2.241623383E0,6.995626280E0
1.474775471E1,4.341585104E0,-6.017897632E0,2.199800004E0,7.739739865E0
1.475769071E1,4.316615154E0,-7.108075322E0,2.146441530E0,8.588661852E0
1.476762571E1,4.279802839E0,-8.101816639E0,2.039320247E0,9.386957561E0
1.477756171E1,4.323756651E0,-8.849269724E0,1.882602296E0,1.002739436E1
1.478749671E1,4.436546225E0,-9.397215811E0,1.698246311E0,1.052970313E1
1.479743271E1,4.655308397E0,-9.708762478E0,1.768795599E0,1.091148949E1
1.480736771E1,4.981689742E0,-9.964714987E0,2.303917865E0,1.137632696E1
1.481730371E1,5.055510255E0,-1.011770622E1,3.077308029E0,1.172160346E1
1.482723871E1,4.435200196E0,-9.721192489E0,2.863944884E0,1.106231280E1
1.483717471E1,3.491495550E0,-8.420022699E0,7.058290958E-1,9.142511588E0
1.484711071E1,2.556333394E0,-7.029790460E0,-1.180206685E0,7.572693190E0
1.485704571E1,1.676943442E0,-5.215400612E0,-2.253786177E0,5.923858117E0
1.486698171E1,6.899173602E-1,-2.099159775E0,-2.383549633E0,3.250194852E0
1.487691671E1,-1.074944524E0,2.406815119E0,-2.700637414E0,3.773818648E0
1.488685271E1,-4.830304744E0,1.066257667E1,-4.391757138E0,1.250239640E1
1.489678771E1,-1.302318066E1,2.708937361E1,-9.554981875E0,3.153942098E1
1.490672371E1,-2.768523763E1,4.771840656E1,-1.490680271E1,5.714657885E1
1.491665871E1,-3.582230245E1,4.717624337E1,-1.293317680E1,6.063086964E1
1.492659471E1,-2.312482340E1,2.751572685E1,-5.126967323E0,3.630645225E1
1.493652971E1,-1.214003942E1,1.809712309E1,8.922500253E-2,2.179207155E1
1.494646571E1,-1.134328028E1,1.343004395E1,2.531930624E0,1.776082095E1
1.495640171E1,-1.476625435E1,1.135713350E1,1.702142018E0,1.870625661E1
1.496633671E1,-1.754806720E1,9.509012235E0,-1.384410167E0,2.000681303E1
1.497627271E1,-1.899820124E1,8.332226756E0,-5.697745618E0,2.151329724E1
1.498620771E1,-1.736530897E1,9.046875792E0,-9.437236494E0,2.173617606E1
1.499614371E1,-1.352591022E1,9.295739138E0,-1.056543103E1,1.951894839E1
1.500607871E1,-9.285711163E0,6.689271424E0,-8.404976059E0,1.419909879E1
1.501601471E1,-5.417654632E0,2.055581646E0,-5.137674744E0,7.744165507E0
1.502594971E1,-2.106280806E0,-2.165811601E0,-2.453443741E0,3.891856230E0
1.503588571E1,6.352146113E-1,-5.348227133E0,1.526915583E-1,5.387981605E0
1.504582071E1,3.247144209E0,-7.333217098E0,2.926344323E0,8.537183940E0
1.505575671E1,5.321224106E0,-8.973290337E0,2.784261368E0,1.079756810E1
1.506569271E1,6.286814003E0,-1.091270184E1,9.810818025E-1,1.263224498E1
1.507562771E1,7.273602980E0,-1.288943028E1,-6.481755495E-1,1.481427841E1
1.508556371E1,8.194348242E0,-1.497671202E1,-7.457468677E-1,1.708816504E1
1.509549871E1,8.574260554E0,-1.692111003E1,5.208234850E-1,1.897664790E1
1.510543471E1,8.102635834E0,-1.814931534E1,1.953164448E0,1.997161000E1
1.511536971E1,6.811318603E0,-1.826528316E1,3.679915058E0,1.983825610E1
1.512530571E1,5.361949378E0,-1.688543383E1,4.914695853E0,1.838539126E1
1.513524071E1,4.926982607E0,-1.475828343E1,4.150739586E0,1.610312785E1
1.514517671E1,5.603120711E0,-1.253523753E1,2.233689297E0,1.391102115E1
1.515511171E1,5.904913638E0,-9.820881668E0,3.025983801E-1,1.146338901E1
1.516504771E1,5.577145625E0,-7.254608885E0,-6.434746805E-1,9.173219885E0
1.517498371E1,5.263102198E0,-5.237946891E0,-8.674724489E-2,7.425891021E0
1.518491871E1,5.295513314E0,-3.451596197E0,1.492822369E0,6.494959291E0
1.519485471E1,5.142169499E0,-2.537834850E0,2.794572056E0,6.379039572E0
1.520478971E1,5.325103149E0,-2.156098207E0,2.767066169E0,6.376687087E0
1.521472571E1,5.660914006E0,-2.146793532E0,2.117916181E0,6.414065700E0
1.522466071E1,6.048018394E0,-3.043154150E0,1.935110585E0,7.041588361E0
1.523459671E1,5.425602168E0,-4.622417516E0,2.348550831E0,7.504638138E0
1.524453171E1,4.474788769E0,-6.273661861E0,3.215765710E0,8.350072861E0
1.525446771E1,4.071239088E0,-8.253311564E0,3.636479309E0,9.895257513E0
1.526440271E1,4.209728052E0,-1.022260293E1,3.356128415E0,1.155365824E1
1.527433871E1,4.893197688E0,-1.180199668E1,3.266018436E0,1.318701580E1
1.528427471E1,5.529728215E0,-1.269671423E1,3.691208078E0,1.433211302E1
1.529420971E1,5.718442422E0,-1.304376987E1,3.893315333E0,1.476476957E1
1.530414571E1,5.854167992E0,-1.275346731E1,2.974885861E0,1.434476062E1
1.531408071E1,5.676902633E0,-1.192357901E1,1.518247963E0,1.329300706E1
1.532401671E1,4.539474177E0,-1.050746056E1,-4.806110135E-1,1.145620095E1
1.533395250E1,3.490628408E0,-8.033425266E0,-2.323637892E0,9.061992123E0
1.534388850E1,2.400198703E0,-5.792318484E0,-3.155241766E0,7.019078132E0
1.535382350E1,6.391652825E-1,-2.171379320E0,-3.010357995E0,3.766387615E0
1.536375950E1,-1.765682541E0,2.952856768E0,-2.999958137E0,4.564728552E0
1.537369450E1,-4.249225409E0,1.127610396E1,-3.040162715E0,1.242775226E1
1.538363050E1,-1.106749518E1,2.660753497E1,-4.998730867E0,2.924786620E1
1.539356650E1,-2.657457772E1,4.732066492E1,-1.018502638E1,5.521945556E1
1.540350150E1,-3.906602662E1,4.921340863E1,-1.310105855E1,6.418529240E1
1.541343750E1,-1.738474511E1,2.655710858E1,-6.781556275E0,3.245764755E1
1.542337250E1,-5.106072298E0,1.637425971E1,-1.725974100E0,1.723854234E1
1.543330850E1,-9.889603994E0,1.350051460E1,-2.056273956E0,1.686109202E1
1.544324350E1,-1.589110779E1,1.355730743E1,-3.961174901E0,2.126073372E1
1.545317950E1,-1.803290312E1,1.176735778E1,-5.770544622E0,2.229249850E1
1.546311450E1,-1.637691084E1,1.052540450E1,-5.556578629E0,2.024507136E1
1.547305050E1,-1.121021402E1,1.238001617E1,-3.056790150E0,1.697874156E1
1.548298550E1,-7.445701740E0,1.382633666E1,-1.905462570E0,1.581887630E1
1.549292150E1,-4.754257903E0,1.293048124E1,-2.461518453E0,1.399497718E1
1.550285750E1,-1.451689984E0,9.568491867E0,-2.911839135E0,1.010654479E1
1.551279250E1,1.183265948E-1,3.859747637E0,-1.903492059E0,4.305221832E0
1.552272850E1,4.478821009E-1,-8.137248427E-1,-3.841164601E-1,1.005132803E0
1.553266350E1,8.700879085E-1,-4.106337000E0,8.005566207E-1,4.273165973E0
1.554259950E1,2.043577605E0,-6.860226468E0,9.794600773E-1,7.224836238E0
1.555253450E1,4.031642329E0,-8.927120723E0,9.026396504E-1,9.836787209E0
1.556247050E1,6.379443254E0,-1.054356829E1,8.443005180E-1,1.235220514E1
1.557240550E1,7.928905116E0,-1.228075267E1,6.524086413E-1,1.463250011E1
1.558234150E1,8.530888832E0,-1.420944038E1,1.006685883E0,1.660414637E1
1.559227650E1,8.017278764E0,-1.585442353E1,2.216583560E0,1.790398690E1
1.560221250E1,7.131808001E0,-1.708489872E1,3.302582245E0,1.880594319E1
1.561214850E1,5.760990272E0,-1.773419811E1,3.900767609E0,1.905011232E1
1.562208350E1,3.607387364E0,-1.701495667E1,4.345788667E0,1.792785188E1
1.563201950E1,2.109766916E0,-1.516854981E1,4.553306351E0,1.597712798E1
1.564195450E1,1.688009298E0,-1.341412549E1,4.557829757E0,1.426751381E1
1.565189050E1,1.917485030E0,-1.192724170E1,3.919048344E0,1.270018832E1
1.566182550E1,2.581600090E0,-1.039216516E1,2.834255354E0,1.107676664E1
1.567176150E1,3.412855762E0,-9.065926605E0,1.796694711E0,9.852244493E0
1.568169650E1,4.081700926E0,-7.817948937E0,8.217046840E-1,8.857528245E0
1.569163250E1,4.800721048E0,-6.616591119E0,8.251488402E-2,8.175145829E0
1.570156850E1,5.500007987E0,-5.758297629E0,1.534345932E-1,7.964397128E0
1.571150350E1,5.780054533E0,-5.419209407E0,1.073942896E0,7.995637207E0
1.572143950E1,5.998360330E0,-5.611185191E0,1.849402975E0,8.419383425E0
1.573137450E1,6.274407381E0,-6.363073390E0,1.985590767E0,9.154204588E0
1.574131050E1,5.905045785E0,-7.188783270E0,2.011877510E0,9.518183742E0
1.575124550E1,5.407084036E0,-7.271522541E0,2.323472123E0,9.354684417E0
1.576118150E1,5.299782951E0,-7.203635783E0,2.654310801E0,9.328742340E0
1.577111650E1,5.276323922E0,-7.397397891E0,2.772679496E0,9.499939014E0
1.578105250E1,5.116084485E0,-7.568946428E0,2.902076916E0,9.585683122E0
1.579098750E1,4.731539716E0,-7.409409242E0,2.481113642E0,9.134699683E0
1.580092350E1,4.267968951E0,-6.997456527E0,8.278593171E-1,8.238040292E0
1.581085950E1,3.481033712E0,-6.659871624E0,-1.278906370E0,7.622800486E0
1.582079450E1,1.893022034E0,-5.751846980E0,-1.829772702E0,6.325768274E0
1.583073050E1,-2.832101825E-1,-4.056256768E0,-9.824526823E-1,4.183137608E0
1.584066550E1,-2.337360138E0,-9.967216426E-1,-3.417485587E-1,2.563883485E0
1.585060150E1,-4.503453575E0,4.697042606E0,-8.766284578E-1,6.565956198E0
1.586053650E1,-7.435459757E0,1.422350059E1,-3.220702515E0,1.636969626E1
1.587047250E1,-1.511224814E1,2.985698240E1,-8.674022824E0,3.456961258E1
1.588040750E1,-3.277765726E1,4.784836912E1,-1.721853450E1,6.050057167E1
1.589034350E1,-3.545833900E1,4.520009498E1,-1.740863800E1,6.002835220E1
1.590027850E1,-1.104191478E1,2.853623672E1,-6.766401461E0,3.133727615E1
1.591021450E1,-3.074482362E0,2.181340754E1,3.003162119E-1,2.203105490E1
1.592015050E1,-4.709611196E0,1.561249147E1,2.819865357E0,1.654937969E1
1.593008550E1,-9.680146789E0,1.165240620E1,1.683586756E0,1.524199057E1
1.594002150E1,-1.133060819E1,1.041732924E1,-7.723563766E-1,1.541103387E1
1.594995650E1,-9.333983436E0,1.045779899E1,-2.967646423E0,1.432814474E1
1.595989250E1,-6.070910243E0,9.661107085E0,-3.795328570E0,1.202486841E1
1.596982750E1,-2.598308508E0,7.459412876E0,-3.632865145E0,8.694352001E0
1.597976350E1,-7.073979038E-1,3.756360678E0,-3.708577524E0,5.325805534E0
1.598969850E1,-1.847743535E-1,-5.718278700E-1,-2.983016707E0,3.042945505E0
1.599963450E1,4.564307302E-2,-4.401978655E0,-1.341034059E0,4.601942168E0
1.600956950E1,5.880547705E-1,-7.201071194E0,6.024620175E-1,7.250116912E0
1.601950550E1,1.234299277E0,-9.221618078E0,1.710576188E0,9.459799447E0
1.602944150E1,1.796647349E0,-1.097963024E1,1.565277557E0,1.123522656E1
1.603937650E1,2.925882393E0,-1.255130451E1,8.791642490E-1,1.291777699E1
1.604931250E1,4.071725577E0,-1.394910830E1,4.614983658E-1,1.453855400E1
1.605924750E1,4.437513647E0,-1.522198517E1,4.883043413E-1,1.586312709E1
1.606918350E1,4.062924640E0,-1.616012181E1,1.290162260E0,1.671291154E1
1.607911850E1,3.505731474E0,-1.660456633E1,2.298858415E0,1.712561024E1
1.608905450E1,3.061431669E0,-1.664321526E1,3.007969115E0,1.718769490E1
1.609898950E1,2.741602129E0,-1.645831226E1,3.256075246E0,1.699983679E1
1.610892550E1,2.793333908E0,-1.572510183E1,3.335600302E0,1.631587482E1
1.611886150E1,2.808763248E0,-1.438147716E1,3.496886390E0,1.506466895E1
1.612879650E1,3.106312265E0,-1.238088507E1,3.306362177E0,1.318588343E1
1.613873250E1,3.870660880E0,-1.033927359E1,2.729092011E0,1.137235847E1
1.614866750E1,4.676803346E0,-8.778041282E0,1.932603883E0,1.013219897E1
1.615860350E1,5.491525431E0,-7.619491514E0,1.413737169E0,9.498007964E0
1.616853850E1,5.950614306E0,-6.802225598E0,9.905687638E-1,9.091826559E0
1.617847450E1,6.106119252E0,-6.081447510E0,3.830759481E-1,8.626438623E0
1.618840950E1,5.949748918E0,-5.497660915E0,2.393452477E-1,8.104386088E0
1.619834550E1,5.782161870E0,-5.454265219E0,9.456260410E-1,8.004786917E0
1.620828050E1,5.709111435E0,-5.947696545E0,1.918472917E0,8.464607841E0
1.621821650E1,5.697253282E0,-6.608929512E0,2.898819140E0,9.194552554E0
1.622815250E1,5.760704927E0,-7.175311285E0,3.814757406E0,9.961083644E0
1.623808750E1,5.946648724E0,-7.511041451E0,3.963944435E0,1.036779775E1
1.624802350E1,5.829927775E0,-7.447180501E0,2.775871783E0,9.856673852E0
1.625795850E1,4.556248962E0,-7.307529695E0,2.405947977E-1,8.614945194E0
1.626789450E1,2.472881347E0,-6.487954713E0,-2.330207531E0,7.323835447E0
1.627782950E1,-3.812209189E-2,-3.597565504E0,-2.941154151E0,4.646968753E0
1.628776550E1,-2.989652712E0,2.436078680E-1,-2.298508606E0,3.778956197E0
1.629770050E1,-7.004581944E0,6.453841472E0,-3.128293996E0,1.002509158E1
1.630763650E1,-1.284302794E1,1.890720336E1,-5.471017492E0,2.350229219E1
1.631757150E1,-2.698503589E1,3.948540998E1,-1.323005865E1,4.962181189E1
1.632750750E1,-4.776513751E1,4.919673237E1,-1.546650988E1,7.029252994E1
1.633744358E1,-2.879081981E1,3.325991456E1,-3.591844880E0,4.413654462E1
1.634737858E1,-5.318716820E0,2.355346875E1,5.671626105E0,2.480366871E1
1.635731458E1,-2.621077274E0,1.746989227E1,5.780622883E0,1.858716715E1
1.636724958E1,-8.591511009E0,1.198344046E1,-2.615810394E0,1.497529201E1
1.637718558E1,-1.146323240E1,7.839996448E0,-1.166893043E1,1.813932685E1
1.638712058E1,-1.078496240E1,4.431005403E0,-1.727712594E1,2.084342351E1
1.639705658E1,-8.088444057E0,3.656410128E0,-1.624518242E1,1.851210993E1
1.640699158E1,-3.019822298E0,5.158384413E0,-8.570047635E0,1.044863498E1
1.641692758E1,-1.928429264E-1,4.306826915E0,-1.070994145E0,4.442181326E0
1.642686358E1,-1.286504388E-1,1.507674735E0,4.192040809E0,4.456774640E0
1.643679858E1,2.232654047E-1,-1.327747723E0,6.792513372E0,6.924666012E0
1.644673458E1,9.209165847E-1,-3.299899542E0,7.682979412E0,8.412229014E0
1.645666958E1,2.316296713E0,-5.002158505E0,6.367471665E0,8.422084990E0
1.646660558E1,4.088584561E0,-6.937239561E0,4.071208975E0,9.023112487E0
1.647654058E1,5.844363381E0,-9.032659457E0,2.620598972E0,1.107307812E1
1.648647658E1,7.489725426E0,-1.099068616E1,1.902825476E0,1.343547223E1
1.649641158E1,8.738947383E0,-1.281731072E1,1.729860159E0,1.560913424E1
