Time (s),Linear Acceleration x (m/s^2),Linear Acceleration y (m/s^2),Linear Acceleration z (m/s^2),Absolute acceleration (m/s^2)
0.001969125,-0.68556864,1.895534583,-1.812524001,2.710774607
0.011903125,-0.199162743,2.616336936,-1.764294997,3.161901579
0.021837125,-0.213890271,2.920490968,-0.768432895,3.027458613
0.031771125,-0.619131845,2.078979279,0.856408932,2.332148225
0.041705125,-1.444960424,0.933960553,1.965473714,2.612140858
0.051640125,-2.115360801,0.62676977,2.570866356,3.387764083
0.061574125,-2.542462629,1.326550798,2.773427939,3.989455574
0.071508125,-3.847852646,2.041783971,2.569769418,5.057525742
0.081442125,-4.757951005,1.985514168,1.755837584,5.446405227
0.091376125,-6.342682394,2.752303703,1.290956458,7.033588288
0.101310125,-6.159797861,2.336638007,0.976652829,6.660092913
0.111245125,-5.925368952,1.301946007,1.856126688,6.344309805
0.121179125,-6.838093003,0.317696768,3.073528681,7.503800751
0.131113125,-6.297689824,-0.486827773,3.892360482,7.419458776
0.141047125,-0.925286209,-0.299946083,4.086041315,4.200220928
0.150981125,3.222532693,0.634596561,4.897265303,5.896663226
0.160916125,4.96813648,0.804042146,3.556109914,6.16236818
0.170850375,5.872204313,0.040032085,0.442990905,5.889025981
0.180784375,4.224238795,-1.972824249,0.223567121,4.667570157
0.190718375,0.512611071,-3.375379787,0.740338778,3.493431025
0.200652375,-1.55958193,-2.456282856,0.502417327,2.952633475
0.210587375,-2.319302182,-1.790251664,-0.004339803,2.929877551
0.220521375,-2.582069036,-1.827201389,-0.955307568,3.304293869
0.230455375,-2.844591478,-2.309371271,-1.954972115,4.152928161
0.240389375,-2.390259898,-2.943384571,-2.957539803,4.808731309
0.250323375,-1.071895494,-3.460821057,-2.712908088,4.526158706
0.260257375,0.44802682,-3.50925062,-2.825631296,4.527666084
0.270192375,0.97052904,-3.204267161,-2.600171431,4.239120915
0.280126375,1.365832393,-3.397120905,-2.284930494,4.315881825
0.290060375,1.52525322,-3.647992184,-2.252432254,4.550570889
0.299994375,1.760631716,-3.866211149,-2.40864062,4.883539938
0.309928375,1.991911899,-4.1688604,-2.494177199,5.250526635
0.319863375,1.931489697,-4.557338883,-2.733826502,5.654537778
0.329797375,1.657348838,-4.764002288,-3.204729091,5.976019705
0.339731375,2.134000994,-4.733635066,-3.804073958,6.436788008
0.349665375,2.612205586,-4.939049506,-4.482428741,7.163099571
0.359599375,3.111651358,-5.396794106,-4.870177492,7.907362999
0.369534375,3.161247441,-5.658309072,-5.07053409,8.229232218
0.379468375,3.035070959,-5.474089619,-4.863354376,7.926507975
0.389402375,2.966358574,-4.759513381,-4.423418641,7.142750401
0.399336375,3.18485382,-3.932581432,-4.192834277,6.571784373
0.409270375,3.83880291,-3.871703146,-4.57099067,7.114804898
0.419204375,4.566830376,-2.971929801,-5.396860764,7.669055517
0.429139375,3.902138196,-2.373449153,-5.24624409,6.955790425
0.439073375,1.953462363,-2.889249002,-4.010325134,5.314742015
0.449007375,0.96879651,-3.312380717,-2.203712376,4.094725989
0.458941375,0.569113008,-2.981545547,-0.08268343,3.036501279
0.468875375,0.51257511,-2.244176863,1.852655196,2.954893282
0.478810375,-0.890747291,-1.665600429,2.557972076,3.179760473
0.488744375,0.012573853,-2.45058416,3.313057824,4.120906814
0.498678375,1.676920638,-3.103547409,1.518603766,3.840602394
0.508612375,0.363628986,-3.245926526,2.571947506,4.157304298
0.518546375,-3.536078523,-2.554131625,3.391843792,5.525580873
0.528480375,-8.755142416,0.807891514,3.303677428,9.392523195
0.538415375,-10.1801229,4.130048629,6.815000594,12.92812582
0.548349375,-9.531224054,5.383579398,7.722257499,13.39628381
0.558283375,-9.134475853,4.193844091,6.43977541,11.93723941
0.568217375,-8.370157059,2.589852265,6.564172,10.94784079
0.578151375,-9.213710888,2.614922202,6.237465842,11.42962233
0.588086375,-8.634745322,3.697582712,5.377628687,10.82357773
0.598020375,-6.32591258,5.263679318,4.506233049,9.38241047
0.607954375,-3.939534649,6.967257997,4.025031466,8.95898965
0.617888375,-2.959434886,7.642598541,3.767189137,9.019937987
0.627822375,-4.489264137,5.593368725,3.807046682,8.119905826
0.637757375,-6.418949382,4.332336271,4.266169471,8.841507263
0.647691375,-6.693295478,4.6603256,4.613895199,9.370531893
0.657625375,-5.644361123,4.650813934,4.572370613,8.62528004
0.667559375,-4.116549747,4.478058532,4.34583486,7.475645168
0.677493375,-3.047394551,4.329441899,4.445360318,6.913169249
0.687427375,-2.514787465,3.93544686,4.551807709,6.521568171
0.697362375,-1.684071783,3.229184486,3.586500818,5.111430164
0.707296375,-0.996388351,2.445851131,3.11867094,4.086696213
0.717230375,-0.539293377,1.574781767,2.87939469,3.325911716
0.727164375,-0.626840814,1.026128167,2.841664361,3.085599579
0.737098375,-0.204288266,0.505832978,2.219722345,2.285775139
0.747033375,0.115908186,0.047330287,1.646785258,1.651537632
0.756967375,0.050008897,-0.260216592,1.515008313,1.538006422
0.766901375,0.120319911,-0.284909383,0.75742902,0.818137493
0.776835375,0.185674825,-0.393648883,0.591780324,0.734600936
0.786769375,0.213347358,-0.411514539,0.979120354,1.083299579
0.796704375,0.22970085,-0.41015645,0.916710683,1.030218069
0.806638375,0.41826303,-0.686703731,-0.051566595,0.805707819
0.816572375,1.027109622,-1.046342723,-0.71352754,1.630616086
0.826506375,1.890787228,-1.28304576,-0.328563818,2.308514013
0.836440375,2.624697577,-1.532108788,-0.114610105,3.041304027
0.846374375,2.867796153,-1.511516648,0.007204354,3.241757125
0.856309375,2.746278148,-1.344198572,0.209733194,3.064784084
0.866243375,2.589407877,-1.265110888,0.389799369,2.908175073
0.876177375,2.573559583,-1.147046979,0.097170199,2.819284971
0.886111375,2.66945509,-0.740986503,-0.606435785,2.835985866
0.896045375,2.595127038,0.234754306,-1.768075806,3.148949982
0.905980375,3.146342304,1.697742281,-3.436368878,4.958873845
0.915914375,4.470974046,3.572713083,-5.448951854,7.902212602
0.925848375,5.147085838,4.846033754,-6.388487143,9.52834213
0.935782375,4.065381932,3.945304681,-6.435536179,8.573732279
0.945716375,3.037236768,2.128057153,-6.266024812,7.281243121
0.955650375,3.352243232,1.809553615,-5.975112385,7.086182822
0.965585375,2.984351626,1.306808552,-4.226224802,5.336204577
0.975519375,2.792068863,0.67584165,-2.487835309,3.800228282
0.985453375,2.123666625,0.020120561,-0.950690022,2.32683826
0.995387375,0.74628832,-1.24893822,-1.009513304,1.770850091
1.005321375,0.711571062,-2.276956061,-1.849415254,3.018476281
1.015256375,2.405560307,-2.173872719,-0.530505305,3.285403912
1.025190375,4.947719758,-0.632788602,2.212478814,5.456685323
1.035124375,6.326069285,0.220755341,2.140071573,6.681900318
1.045058375,6.185019826,-0.239950288,1.14489418,6.294666716
1.054992375,4.676933447,-0.944192742,1.517044314,5.006658551
1.064926375,3.101091287,-1.744487846,1.658764449,3.925748911
1.074861375,1.951590085,-2.476412188,1.656779319,3.561774684
1.084795375,0.897190338,-3.181474714,2.31096376,4.033272289
1.094729375,0.708962034,-4.327395666,3.171024278,5.411503985
1.104663375,1.599661378,-5.39575681,5.020915203,7.54206189
1.114597375,2.199944138,-5.322640886,2.939107333,6.465957944
1.124532375,2.145834004,-5.79395278,2.320185404,6.599829748
1.134466375,0.934486218,-5.604491299,2.149753101,6.074950667
1.144400375,-0.545742856,-5.284384308,1.395300898,5.492669422
1.154334375,-1.598012463,-4.99962666,1.209153911,5.386275499
1.164268375,-2.862590961,-4.384141139,1.435688786,5.429210148
1.17420325,-4.003587973,-3.778310249,1.612051335,5.736118417
1.18413725,-4.995707272,-3.192449353,1.957941623,6.243585462
1.19407125,-5.805821459,-2.661170754,2.6351562,6.908939194
1.20400525,-6.756124395,-2.418094983,3.315361919,7.904683728
1.21393925,-7.261930768,-1.922385874,3.783859549,8.411230529
1.22387325,-7.1643384,-1.28219499,3.751024509,8.187915093
1.23380825,-6.820794016,-0.909051415,3.24611656,7.608342671
1.24374225,-6.144187549,-0.624325926,2.53355001,6.675305173
1.25367625,-5.090649097,-0.066505938,1.833318454,5.411117059
1.26361025,-3.852056209,0.641216267,1.147746744,4.070235611
1.27354425,-3.052838309,1.152688884,0.522500466,3.304772328
1.28347925,-2.603153511,1.270836481,-0.014509573,2.89683346
1.29341325,-2.655599527,1.070149734,-0.353850395,2.884898509
1.30334725,-2.863236494,0.015967577,-0.646098619,2.935271982
1.31328125,-3.914254797,-0.267948365,-0.718518723,3.988665954
1.32321525,-4.516065434,-0.306998922,-0.677923405,4.576972306
1.33314925,-4.37856348,-0.677611895,-0.522577357,4.461396993
1.34308425,-3.924170505,-1.277474679,-0.642681359,4.176612866
1.35301825,-3.096521103,-1.330582015,-0.790662986,3.461797134
1.36295225,-2.021037465,-0.838581356,-0.882427288,2.359340807
1.37288625,-1.110856369,-0.085263952,-0.653304581,1.291541207
1.38282025,-0.23574921,-0.12385119,-0.488278029,0.556176448
1.39275525,0.819862665,-0.056714191,-0.547214016,0.987337059
1.40268925,1.999284069,0.40978676,-0.494324927,2.099861688
1.41262325,2.687296699,0.676795477,-0.132309188,2.774368646
1.42255725,3.049835179,1.203014188,0.101327496,3.280092227
1.43249125,3.234713028,1.30066459,0.114922492,3.488309609
1.44242525,3.530189207,1.38214671,0.149086604,3.79404694
1.45236025,3.973347927,1.69487773,0.201730109,4.32444208
1.46229425,4.535774059,2.107510622,0.127285041,5.003103919
1.47222825,4.826822142,2.37491885,-0.004693121,5.379449188
1.48216225,4.757689927,2.364359364,-0.176582404,5.315730428
1.49209625,4.731644674,2.414680794,-0.453214177,5.331467692
1.50203125,4.676487304,2.433942692,-0.780417494,5.329414789
1.51196525,4.414185888,2.239943625,-1.004503775,5.050882331
1.52189925,4.523483212,1.9997536,-1.287785513,5.110705074
1.53183325,4.530853043,1.695822494,-1.400465598,5.03644191
1.54176725,4.332358782,2.364294752,-1.320698905,5.109155301
1.55170125,4.179262304,2.655508896,-1.182084811,5.090705786
1.56163625,3.960145499,2.152798038,-1.165934874,4.655823869
1.57157025,3.571988613,1.560285058,-1.331541982,4.119052823
1.58150425,2.966317059,1.221561995,-1.363511633,3.485744479
1.59143825,2.224269724,1.191633022,-1.188434302,2.789218736
1.60137225,1.186546236,1.21867464,-1.052083811,1.999985049
1.61130625,0.374376753,0.897666009,-0.904841419,1.328420194
1.62124125,-0.188095572,0.70728593,-0.583943886,0.936281898
1.63117525,-0.68948145,1.071662774,-0.288896892,1.306639654
1.64110925,-1.353441558,1.49281199,0.082654413,2.016711046
1.65104325,-2.044834464,1.814997666,0.185856637,2.74045748
1.66097725,-3.109415383,1.939307424,-0.036507676,3.664793325
1.67091225,-4.390825092,1.963404677,-0.337356313,4.82162962
1.68084625,-5.09685884,2.482899382,-0.879100222,5.737209825
1.69078025,-6.301187044,2.206768716,-0.942127944,6.74258047
1.70071425,-7.322401503,2.031986961,-0.483762334,7.614496752
1.71064825,-8.014351063,1.988708502,-0.237777025,8.260830611
1.72058325,-8.255565081,2.029448977,0.510080651,8.516642545
1.73051725,-7.643285589,2.339156987,1.322422079,8.101868313
1.74045125,-6.78750874,2.829908827,1.640053943,7.534483115
1.75038525,-6.385271759,2.935783483,1.302169079,7.147458598
1.76031925,-6.424401326,2.447394504,0.94299684,6.939158112
1.77025325,-6.234400147,1.881850344,0.854523205,6.568052665
1.78018825,-5.342890964,1.627047982,1.048211639,5.682650493
1.79012225,-4.104674052,1.692588545,1.291934112,4.624099783
1.80005625,-3.065732589,1.735010679,1.453678622,3.810795179
1.80999025,-2.700930651,1.429951498,1.679494582,3.487189373
1.81992425,-2.76290646,0.965529378,1.812576041,3.442576214
1.82985825,-2.913631307,0.396557288,1.768754668,3.431471718
1.83979325,-2.886824162,-0.226139019,1.396529691,3.214838686
1.84972725,-2.786952549,-0.786089732,0.899207042,3.03209744
1.85966125,-2.697715268,-1.236032392,0.427067731,2.997971078
1.86959525,-2.681153614,-1.660844888,-0.013225232,3.153912705
1.87952925,-2.300992795,-2.041065056,-0.462029512,3.110303149
1.88946425,-1.548561975,-2.023886521,-0.803468753,2.672025988
1.89939825,-0.581269369,-1.722661067,-0.937955371,2.045775039
1.90933225,0.285502583,-1.351861202,-0.920126041,1.660021797
1.91926625,0.854755924,-1.154982674,-0.688187461,1.593171255
1.92920025,1.380275601,-1.001421488,-0.332566274,1.737413612
1.93913425,1.892901582,-0.795757518,0.080008621,2.054922822
1.94906925,2.387456158,-0.57461743,0.552661245,2.517055134
1.95900325,2.747320122,-0.353079439,1.017664615,2.95094463
1.96893725,3.027913967,-0.212231855,1.404504708,3.344538657
1.97887125,3.172171794,-0.16444797,1.74041029,3.621980812
1.98880525,3.544593823,-0.009874047,1.944033144,4.042710443
1.99873925,3.895969384,0.128150502,2.004748877,4.383379752
2.00867425,4.092362155,0.193358358,1.928790037,4.528249824
2.01860825,4.259307178,0.159070286,1.659211761,4.573836974
2.02854225,4.350844755,0.106491538,1.300651141,4.542343439
2.03847625,4.573480414,0.08751323,0.87267764,4.65681736
2.04841025,4.778337615,0.091721764,0.493219657,4.804600802
2.05834525,4.885068011,0.013420529,0.121995138,4.886609499
2.06827925,4.969653248,-0.122255485,-0.237315021,4.976818083
2.07821325,4.943558879,-0.256906702,-0.517695005,4.977226493
2.08814725,4.830872508,-0.387454855,-0.756241523,4.905033302
2.09808125,4.570518799,-0.596113622,-0.964251542,4.709009937
2.10801525,4.16904371,-0.816404841,-1.071935035,4.381379582
2.11795025,3.788675315,-0.962001461,-1.103381288,4.061644707
2.12788425,3.270212059,-1.081694184,-1.031420848,3.595577587
2.13781825,2.613449289,-1.244972785,-0.882550664,3.02637904
2.14775225,2.075292025,-1.333438234,-0.820183092,2.599537424
2.15768625,1.518646451,-1.42939075,-0.748114478,2.215653455
2.16762125,0.858601638,-1.623745767,-0.529884659,1.911681155
2.17755525,0.190842009,-1.886212074,-0.12513279,1.899967073
2.18748925,-0.473279482,-2.042143575,0.300733995,2.117731046
2.19742325,-0.961486906,-2.095347975,0.747953607,2.423710957
2.20735725,-1.242646762,-2.225109677,1.22295334,2.826817808
2.21729125,-1.408948592,-2.306998763,1.55507285,3.118594394
2.22722625,-1.551513065,-2.276127511,1.538118263,3.154957532
2.23716025,-1.85388545,-2.304554334,1.137264733,3.168790466
2.24709425,-2.259952358,-2.518447529,0.57517774,3.432315844
2.25702825,-2.583719705,-2.691918046,0.025789729,3.731312824
2.26696225,-2.743220054,-2.712834705,-0.481891846,3.888051974
2.27689625,-2.559687649,-2.561053851,-0.811368488,3.710702967
2.28683125,-2.275696571,-2.261084964,-0.938050169,3.34234023
2.29676525,-2.271898804,-1.922114271,-0.87352841,3.101467287
2.30669925,-2.777141506,-1.943802179,-0.842308956,3.492902265
2.31663325,-3.564523473,-2.324156832,-0.889234031,4.34721402
2.32656725,-4.022273335,-2.727113606,-1.108285933,4.984388539
2.33650125,-3.91967692,-2.932868646,-1.299288155,5.064951664
2.34643625,-3.004333901,-2.748794205,-1.278759751,4.268151622
2.35637025,-1.6033422,-2.192608075,-1.08256637,2.924070164
2.36630425,-0.567122031,-1.640373786,-0.692830151,1.868814376
2.37623825,-0.253230631,-1.470892679,-0.393904736,1.543635956
2.38617225,-0.600564011,-1.812722222,-0.217954963,1.92201544
2.39610725,-1.20258164,-2.29227065,-0.070428561,2.589530366
2.40604125,-1.60336208,-2.615587615,0.046405824,3.068260425
2.41597525,-1.851746539,-2.779025187,0.083588287,3.34049895
2.42590925,-1.942692962,-2.728528925,0.052875183,3.349883852
2.43584325,-1.977180424,-2.44261996,-0.003028282,3.142553718
2.44577725,-1.879799141,-2.130393993,-0.117729009,2.843603962
2.45571225,-1.513387465,-1.563366394,-0.268811706,2.192422367
2.46564625,-1.053532605,-0.890604911,-0.431533871,1.445451327
2.47558025,-0.53873146,-0.358391635,-0.448405427,0.787237942
2.48551425,0.235972574,0.075865577,-0.329529194,0.412344675
2.49544825,1.000677869,0.443230933,-0.105385537,1.099507148
2.50538225,1.787930612,0.731371049,0.088335075,1.933753493
2.51531725,2.57184518,0.993181154,0.261878041,2.769363924
2.52525125,3.256820766,1.240245018,0.407538104,3.508728618
2.53518525,3.736357938,1.470587893,0.472459702,4.04304558
2.54511925,4.066070734,1.640148961,0.400693316,4.402678158
2.55505325,4.365173357,1.79752063,0.24555616,4.727167934
2.56498825,4.49730055,1.885459538,0.136728943,4.878459255
2.57492225,4.517217336,1.945653115,0.073838644,4.918970486
2.58485625,4.521399849,2.060362768,0.046605817,4.968935845
2.59479025,4.490672731,2.195941865,0.01587869,4.998855307
2.60472425,4.406971593,2.299886502,-0.080386936,4.971653508
2.61465825,4.213153351,2.341089053,-0.156014823,4.82241638
2.62459325,3.838074932,2.337816805,-0.225739946,4.499685003
2.63452725,3.405048852,2.22898755,-0.364014902,4.085982138
2.64446125,2.884154908,2.045108698,-0.46040099,3.565499711
2.65439525,2.166038473,1.844575806,-0.440609919,2.878944194
2.66432925,1.563710357,1.598687816,-0.293580512,2.255478293
2.67426325,1.033925722,1.432704075,-0.076348849,1.768466146
2.68419825,0.500471374,1.153403926,0.092221116,1.260681144
2.69413225,-0.05770851,0.810887481,0.351031744,0.885489732
2.70406625,-0.566705709,0.530982437,0.6498958,1.012651105
2.71400025,-0.881960095,0.360741923,0.940966687,1.339181336
2.72393425,-1.037453932,0.40131049,1.18198073,1.623095566
2.73386825,-1.184317278,0.566971465,1.211849477,1.786796914
2.74380325,-1.46271374,0.763636424,1.042441607,1.951757305
2.75373725,-1.981516135,0.979895402,0.69408087,2.316969885
2.76367125,-2.530000166,1.125141993,0.394627415,2.796886866
2.77360525,-3.114718223,1.26489074,0.131433713,3.364326532
2.78353925,-3.894183644,1.351620736,0.053670423,4.122429548
2.79347325,-4.661747058,1.337897028,-0.035645796,4.850064403
2.80340825,-5.33361728,1.316621934,-0.181188841,5.496707742
2.81334225,-5.765342939,1.304304774,-0.313004962,5.919321097
2.82327625,-6.129449058,1.288647392,-0.376667107,6.274761825
2.83321025,-6.450847698,1.113968549,-0.368524275,6.55668911
2.84314425,-6.438137605,0.932526816,-0.400781609,6.517656633
2.85307825,-6.017970722,0.890140935,-0.316702741,6.091684752
2.86301325,-5.378928523,0.913442089,-0.01188971,5.455949951
2.87294725,-4.729713923,1.016930497,0.424934118,4.856429804
2.88288125,-4.25509192,1.160410936,0.753440634,4.474375217
2.89281525,-3.941097025,1.242596768,0.984613813,4.248029761
2.90274925,-3.955477667,1.249153544,1.079257942,4.286138805
2.91268425,-4.203514216,0.95845951,0.909544993,4.40629646
2.92261825,-4.238643703,0.575217793,0.548253541,4.312488596
2.93255225,-4.034467703,0.123593474,0.211317131,4.041888163
2.94248625,-3.749035286,-0.446483155,-0.065155012,3.776090301
2.95242025,-3.199068986,-0.843985645,-0.360835186,3.328146057
2.96235425,-2.358106059,-1.012072046,-0.523928649,2.619056173
2.97228925,-1.434175234,-1.075052113,-0.705671221,1.926283344
2.98222325,-0.636747167,-1.121998823,-0.832111412,1.535166999
2.99215725,0.127064089,-1.124444128,-0.98167968,1.498070384
3.00209125,0.791630554,-1.036924905,-1.118494002,1.718406536
3.01202525,1.456661872,-0.812338175,-1.177646774,2.04171718
3.02195925,2.11833338,-0.453541329,-1.224692886,2.488555547
3.03189425,2.716959624,-0.032576593,-1.167366199,2.957308688
3.04182825,3.187893203,0.235944069,-0.959292446,3.337450325
3.05176225,3.569121723,0.598985848,-0.672315779,3.680954011
3.06169625,3.796324058,0.944046416,-0.304480891,3.92377479
3.07163025,4.00472818,1.190014366,0.088492913,4.178733418
3.08156425,4.069390783,1.382239388,0.536132373,4.33104664
3.09149925,3.990345783,1.466286389,0.899868947,4.345413601
3.10143325,3.90378945,1.537965651,1.292006033,4.390238035
3.11136725,3.864083347,1.58050853,1.575090208,4.462068634
3.12130125,3.855865086,1.542649856,1.761060317,4.510964152
3.13123525,3.854661144,1.505225629,1.722170486,4.482185618
3.14116925,3.849689841,1.414779874,1.567214009,4.390657549
3.15110425,3.76745577,1.224654733,1.413504742,4.206126228
3.16103825,3.653205269,0.96801386,1.231182711,3.974766715
3.17097225,3.562000984,0.727303288,1.009196092,3.772969366
3.18090625,3.491373636,0.494944439,0.725344763,3.60010901
3.19084025,3.401624722,0.203381363,0.39264287,3.430245349
3.20077425,3.211056948,-0.107837567,0.208289516,3.219611807
3.21070925,3.040027059,-0.422345264,0.05961938,3.06980366
3.22064325,2.79868908,-0.673981286,0.009010541,2.878713694
3.23057725,2.449999731,-0.912866723,0.107168938,2.616736424
3.24051125,1.93936765,-1.122920563,0.295140531,2.260355151
3.25044525,1.412449905,-1.300642078,0.391506171,1.959582004
3.26038025,0.843366133,-1.457440136,0.48130654,1.751300708
3.27031425,0.114380309,-1.638992089,0.592728742,1.74662683
3.28024825,-0.659602178,-1.868452034,0.585235536,2.066080509
3.29018225,-1.522990347,-2.186669204,0.540397332,2.719016565
3.30011625,-2.281915669,-2.57901182,0.500816944,3.479836016
3.31005025,-2.747662768,-2.944681484,0.455303387,4.053159373
3.31998525,-2.896555098,-3.160320365,0.366536222,4.302557966
3.32991925,-2.985352085,-3.27278805,0.318686117,4.441286923
3.33985325,-2.986613914,-3.339189031,0.291773137,4.489451817
3.34978725,-2.77962248,-3.221603278,0.310738581,4.266331829
3.35972125,-2.635736536,-2.927107677,0.384246268,3.957614387
3.36965525,-2.856880571,-2.779521908,0.490455093,4.015974954
3.37959025,-3.509642091,-2.997062303,0.472352114,4.63929807
3.38952425,-4.245352798,-3.385191708,0.344466491,5.440698525
3.39945825,-4.631483624,-3.666698889,0.143404152,5.90896658
3.40939225,-4.570008337,-3.746292942,0.001110971,5.909288303
3.41932625,-4.024497616,-3.365905836,-0.087777232,5.247247659
3.42926025,-2.789601923,-2.518365376,-0.094067667,3.759373855
3.43919525,-1.683050274,-1.517680929,0.103795113,2.268653137
3.44912925,-1.265114104,-0.845034782,0.425841022,1.579853808
3.45906325,-1.383824276,-0.684064882,0.640293503,1.671194231
3.46899725,-2.062212389,-0.928392104,0.643455677,2.35131177
3.47893125,-2.557369813,-1.293385099,0.538647918,2.916012166
3.48886525,-2.67882116,-1.728263577,0.329794657,3.204955899
3.49880025,-2.579795054,-2.066778772,-0.055894704,3.306061287
3.50873425,-2.179719788,-2.193147773,-0.358065908,3.112761909
3.51866825,-1.457239577,-2.058714146,-0.504836905,2.572296915
3.52860225,-0.627609723,-1.628154275,-0.648347458,1.861487237
3.53853625,0.20159153,-1.068233382,-0.818977396,1.361060498
3.54847025,0.948175719,-0.500034148,-0.986511819,1.456803663
3.55840525,1.612307151,-0.036145294,-1.028223517,1.91261194
3.56833925,2.242165128,0.254239714,-0.869545287,2.418274447
3.57827325,2.832661403,0.434700577,-0.575675923,2.923069959
3.58820725,3.454794624,0.590138864,-0.366118694,3.523905883
3.59814125,4.018332312,0.705042792,-0.228607421,4.086115669
3.60807525,4.527385644,0.817568364,-0.110862048,4.601948412
3.61801025,4.911839488,1.00711346,-0.010059554,5.01403489
3.62794425,5.115662316,1.163582612,0.017929907,5.246355584
3.63787825,5.131587793,1.340469218,-0.036996503,5.303906083
3.64781225,5.013776338,1.523040926,-0.111570722,5.241188305
3.65774625,4.823273467,1.722635339,-0.274341418,5.129006011
3.66768025,4.627509856,1.83554332,-0.431568954,4.996930909
3.67761525,4.40207338,1.814671245,-0.560635715,4.794329377
3.68754925,4.208884884,1.744338011,-0.68215255,4.606816597
3.69748325,4.024306996,1.624110779,-0.756694025,4.405152491
3.70741725,3.749783145,1.37057507,-0.711088082,4.055243016
3.71735125,3.437174624,1.073953421,-0.629110118,3.655588173
3.72728525,3.152889431,0.776218609,-0.563075173,3.295494006
3.73722025,2.737336001,0.477212466,-0.500341566,2.823310433
3.74715425,2.250610262,0.173265133,-0.366650827,2.286853774
3.75708825,1.79588341,0.003363026,-0.232045584,1.810815751
3.76702225,1.411785661,-0.042905991,-0.047342575,1.413230695
3.77695625,1.038346217,0.06840336,0.149029155,1.051214333
3.78689025,0.698251689,0.273400747,0.379209477,0.840299481
3.79682525,0.291606492,0.572626015,0.586099169,0.869739694
3.80675925,-0.39454263,0.843083566,0.73746721,1.18756544
3.81669325,-1.370887896,0.856529092,0.767713687,1.789513905
3.82662725,-2.366537744,0.800517444,0.639992956,2.578937777
3.83656125,-3.25607583,0.80703212,0.582179232,3.404741299
3.84649525,-4.07825984,0.860850185,0.510160247,4.199229672
3.85643025,-4.910052579,0.786984648,0.397475046,4.98858172
3.86636425,-5.703492261,0.601357478,0.180033468,5.737932279
3.87629825,-6.295498288,0.48682368,-0.078516375,6.314781137
3.88623225,-6.445282318,0.806466986,-0.338116378,6.504335158
3.89616625,-6.184186013,1.107600347,-0.476459198,6.300630805
3.90610025,-5.955553449,1.397034013,-0.608510377,6.147406428
3.91603525,-6.033275224,1.512030618,-0.762430143,6.266414145
3.92596925,-6.166755463,1.287580568,-0.912221775,6.365444621
3.93590325,-5.959835365,1.022890272,-0.928520304,6.117850279
3.94583725,-5.478733478,0.83063499,-0.825305253,5.60246408
3.95577125,-4.633809646,0.765355798,-0.519642055,4.725250173
3.96570525,-3.700650746,0.889092529,-0.107541406,3.807475098
3.97564025,-3.042519143,1.057459303,0.408008183,3.246785116
3.98557425,-2.624929127,1.163608779,0.867310481,2.999410906
3.99550825,-2.281971218,1.206157505,1.103388889,2.807075989
4.00544225,-2.046258845,0.988469175,0.972876697,2.471990218
4.01537625,-1.951340409,0.521752315,0.628459908,2.115399897
4.02531025,-2.026305222,-0.141078988,0.197116656,2.040752584
4.03524525,-1.886789487,-0.704722803,-0.290710735,2.034974577
4.04517925,-1.59975201,-1.098653229,-0.780729589,2.091837494
4.05511325,-0.999485037,-1.320741297,-1.133410833,2.006974846
4.06504725,-0.223240846,-1.245121304,-1.546428326,1.997899924
4.07498125,0.458411182,-1.012448899,-1.833168765,2.143758687
4.08491525,0.842556294,-0.735321867,-1.850112827,2.161831822
4.09484925,0.932722113,-0.654974692,-1.790157816,2.122175157
4.10478425,1.070995899,-0.458382823,-1.492369648,1.893228511
4.11471825,1.262166522,-0.114019097,-0.950477768,1.58413152
4.12465225,1.546801963,0.14413752,-0.432715008,1.612641999
4.13458625,1.853332888,0.296690353,0.050857931,1.877619368
4.14452025,2.146024039,0.496525965,0.578538719,2.277424918
4.15445525,2.427077476,0.736678129,1.081526735,2.757371904
4.16438925,2.623602394,0.857702336,1.573368788,3.177173612
4.174323417,2.736927865,0.928680225,1.970823916,3.498194964
4.184257417,2.747051734,0.965097561,2.260671566,3.686236897
4.194191417,2.714937072,0.952582473,2.443906932,3.775046723
4.204125417,2.700397385,0.899095945,2.537332574,3.812948485
4.214059417,2.815477606,0.836393913,2.340335201,3.755481032
4.223994417,2.905051103,0.710319757,2.010561594,3.603641768
4.233928417,2.90754494,0.536994691,1.693665894,3.40744553
4.243862417,3.055303495,0.418324718,1.37026926,3.374538911
4.253796417,3.184505326,0.366663545,1.068692096,3.378996763
4.263730417,3.192102613,0.213122678,0.874780884,3.316652223
4.273664417,3.153381767,0.016034966,0.731183792,3.237082548
4.283599417,3.062835878,-0.164437153,0.64779548,3.134907045
4.293533417,2.893194119,-0.364804276,0.621656088,2.98162886
4.303467417,2.707345632,-0.55196137,0.662421706,2.84133494
4.313401417,2.490547832,-0.713929244,0.73599839,2.693365385
4.323335417,2.215756763,-0.888696965,0.807163682,2.520093954
4.333269417,1.851322031,-1.0617649,0.790013798,2.275710827
4.343204417,1.437948443,-1.258299905,0.691187668,2.03193375
4.353138417,0.96036424,-1.518429519,0.554973271,1.880405012
4.363072417,0.451663495,-1.819133109,0.461564001,1.930359165
4.373006417,0.017297818,-2.129327899,0.312334871,2.152182518
4.382940417,-0.239016634,-2.260814822,0.200124464,2.282205603
4.392874417,-0.515391714,-2.36629947,0.189267354,2.429161158
4.402809417,-0.864082818,-2.487499971,0.137450498,2.636889808
4.412743417,-1.310869151,-2.605127531,0.095824188,2.917918721
4.422677417,-1.761697079,-2.664791935,0.112617392,3.196462941
4.432611417,-2.165002347,-2.612497947,0.186932013,3.398135409
4.442545417,-2.442645103,-2.531435657,0.289034923,3.529620769
4.452479417,-2.461675451,-2.463129069,0.411463924,3.506587143
4.462414417,-2.238799471,-2.288352138,0.534344331,3.245659015
4.472348417,-2.04065195,-2.142959221,0.670108455,3.034069865
4.482282417,-2.269459346,-2.315973069,0.673517382,3.311767299
4.492216417,-2.796213369,-2.838230876,0.473178837,4.01226394
4.502150417,-3.194628026,-3.25194945,0.171331532,4.561817395
4.512084417,-3.298593274,-3.335884477,-0.01432809,4.691380194
4.522019417,-3.030415406,-3.201831796,-0.148693525,4.411037763
4.531953417,-2.342287002,-2.785425256,-0.259897041,3.648622854
4.541887417,-1.538564991,-2.118578817,-0.27821867,2.633052233
4.551821417,-1.023314195,-1.351002246,-0.148139282,1.701271365
4.561755417,-0.939455767,-0.740191282,0.103337915,1.200474488
4.571689417,-1.392242512,-0.577838223,0.285636485,1.534217855
4.581623417,-2.083486898,-0.77026015,0.183666891,2.22889028
4.591558417,-2.548931696,-1.15954701,-0.063248089,2.801000246
4.601492417,-2.618981924,-1.691945059,-0.291039385,3.13152492
4.611426417,-2.260058193,-2.191640215,-0.467966775,3.182788521
4.621360417,-1.588026588,-2.467903028,-0.495849735,2.976279684
4.631294417,-0.64288265,-2.480174287,-0.322147596,2.58231324
4.641228417,0.362961234,-2.158723606,-0.030143639,2.189232081
4.651163417,1.235706117,-1.67916977,0.169365844,2.091713535
4.661097417,1.827083568,-1.271439914,0.321585166,2.249046651
4.671031417,2.189058961,-0.952067626,0.476569126,2.434241161
4.680965417,2.461286026,-0.704198892,0.5147866,2.611288997
4.690899417,2.723622526,-0.477884749,0.488560596,2.808057149
4.700833417,3.002748136,-0.287777004,0.410692092,3.044335718
4.710768417,3.288881049,-0.099314081,0.324343883,3.306327388
4.720702417,3.509293013,0.102267509,0.253619434,3.519931663
4.730636417,3.779717381,0.36899673,0.219254215,3.804010315
4.740570417,3.944115942,0.583979115,0.184918232,3.991400371
4.750504417,4.000028188,0.777760666,0.141171666,4.077384774
4.760438417,3.978332094,0.944144357,0.068428795,4.089403051
4.770373417,3.865198996,1.10251093,0.02683755,4.019454426
4.780307417,3.72593703,1.243883741,3.50833E-05,3.928085223
4.790241417,3.453367319,1.301790179,-0.016613146,3.690620477
4.800175417,3.150115512,1.297467332,-0.084794019,3.407908338
4.810109417,2.861205171,1.313629621,-0.164753487,3.152659437
4.820043417,2.511939871,1.28493441,-0.172165418,2.826754196
4.829977417,2.179343812,1.265296829,-0.15730534,2.524927818
4.839912417,1.869530261,1.244449459,-0.05786876,2.246585552
4.849846417,1.576300582,1.190432296,-0.029759952,1.975534922
4.859780417,1.272099772,1.113140876,0.081482156,1.692323781
4.869714417,1.009104876,1.06328196,0.178945849,1.476781228
4.879648417,0.782876102,1.042014467,0.312952374,1.34038365
4.889582417,0.573831711,1.04815112,0.483921488,1.289218216
4.899517417,0.365225276,1.098298888,0.618427255,1.312288924
4.909451417,0.197273362,1.184654662,0.745737512,1.4136647
4.919385417,0.053366368,1.35061326,0.796004856,1.568638862
4.929319417,-0.09127796,1.521952466,0.74374712,1.696417034
4.939253417,-0.294566352,1.738369904,0.587586701,1.858482551
4.949187417,-0.583633983,1.884032817,0.289343619,1.993471347
4.959122417,-0.818984998,1.915999545,-0.037417493,2.08403233
4.969056417,-1.202521414,1.833362016,-0.381541346,2.225499457
4.978990417,-1.864651344,1.600725279,-0.585579937,2.526291732
4.988924417,-2.70576396,1.276930742,-0.733450173,3.080529156
4.998858417,-3.53450913,0.987184542,-1.129645811,3.839711938
5.008792417,-4.460532088,0.76030088,-1.458475678,4.754109301
5.018726417,-5.356783363,0.492884611,-1.711520952,5.645118884
5.028661417,-5.893373573,0.424977973,-1.905046248,6.208192938
5.038595417,-5.908273448,0.795336227,-1.900436304,6.257148951
5.048529417,-5.740883451,1.290488681,-1.676913621,6.118426524
5.058463417,-5.837743748,1.656517656,-1.44881023,6.238778237
5.068397417,-5.997114873,1.655191508,-1.221488028,6.340116618
5.078331417,-5.886065138,1.534060296,-1.013762183,6.166588811
5.088266417,-5.641973121,1.487124988,-0.423709127,5.850036824
5.098200417,-5.110634295,1.49411358,0.407452698,5.340128837
5.108134417,-4.279598771,1.660275662,1.111827006,4.723096463
5.118068417,-3.4230612,1.877085448,1.605844223,4.22131892
5.128002417,-2.795516381,2.024562167,1.895578437,3.937890478
5.137936417,-2.54912173,2.020190496,1.877181927,3.755396547
5.147871417,-2.503583615,1.74798682,1.565544044,3.431372465
5.157805417,-2.766815323,1.207521661,0.995346962,3.178693312
5.167739417,-3.062979135,0.557901849,0.300542188,3.127846106
5.177672875,-3.172995082,0.041334552,-0.306511081,3.188033152
5.187606875,-2.973366462,-0.286236117,-0.744196186,3.078419594
5.197540875,-2.327436243,-0.447303519,-1.117397064,2.62023207
5.207475875,-1.481744088,-0.39459584,-1.380879618,2.063516401
5.217409875,-0.715020334,-0.348510425,-1.516275405,1.712251353
5.227343875,-0.173123192,-0.26973352,-1.469572524,1.504118085
5.237277875,0.190020475,-0.289486584,-1.38886516,1.431382792
5.247211875,0.471752774,-0.382129869,-1.140888838,1.292362664
5.257145875,0.853905154,-0.415494666,-0.83999229,1.267823677
5.267079875,1.361872659,-0.383043496,-0.54849631,1.51732253
5.277014875,1.974446266,-0.312647405,-0.16123699,2.005538288
5.286948875,2.471502281,-0.234670984,0.18387973,2.489418758
5.296882875,2.901809406,-0.057017369,0.500271362,2.945168967
5.306816875,3.18839197,0.114303418,0.760783567,3.279893331
5.316750875,3.32500047,0.290395826,0.954298339,3.471403632
5.326684875,3.270703225,0.317478959,1.06030485,3.45290296
5.336619875,3.11875631,0.211044432,1.152377447,3.331539352
5.346553875,2.902437982,0.181975584,1.299349551,3.185211235
5.356487875,2.867137756,0.193545762,1.354304023,3.176803151
5.366421875,3.016605452,0.212035973,1.273676766,3.281329032
5.376355875,3.162333269,0.167282993,1.123979275,3.360307235
5.386289875,3.248221266,0.077507621,0.879095544,3.365970558
5.396223875,3.247483347,-0.014727967,0.631698096,3.308384422
5.406158875,3.184060353,-0.147417077,0.44662495,3.218609323
5.416092875,3.147429886,-0.26679544,0.27985706,3.171090454
5.426026875,3.074826179,-0.414482074,0.131158931,3.105407233
5.435960875,2.976839708,-0.55173289,0.092271968,3.028943371
5.445894875,2.847976431,-0.672431554,0.093170704,2.927766166
5.455828875,2.692729347,-0.795525238,0.086593719,2.809119117
5.465763875,2.484258567,-0.919351724,0.140031423,2.652613243
5.475697875,2.246975048,-1.01637852,0.213692928,2.475396297
5.485631875,1.988571385,-1.116402599,0.29700994,2.299779516
5.495565875,1.708031334,-1.202420404,0.381595689,2.123393777
5.505499875,1.373716779,-1.3332539,0.45978758,1.968773316
5.515433875,0.978160826,-1.430339315,0.448677944,1.789966775
5.525368875,0.601381452,-1.499677206,0.37103273,1.657816835
5.535302875,0.246815066,-1.561906345,0.294503751,1.608478028
5.545236875,-0.173783927,-1.681124786,0.278818558,1.712927666
5.555170875,-0.5533992,-1.905126501,0.188071562,1.992769072
5.565104875,-0.956085833,-2.198472978,0.069472487,2.398376531
5.575038875,-1.331211614,-2.546103105,-0.031979592,2.873288722
5.584972875,-1.630542862,-2.852165668,-0.145589823,3.288573463
5.594907875,-1.822313409,-3.027290362,-0.223081839,3.540491294
5.604841875,-2.006382004,-2.978182814,-0.293085289,3.602921121
5.614775875,-2.099142818,-2.785512965,-0.266823671,3.498096328
5.624709875,-2.07477747,-2.480239191,-0.210116753,3.240437786
5.634643875,-2.124965876,-2.245098968,-0.194636852,3.097391299
5.644577875,-2.485091795,-2.28856293,-0.239897225,3.386849893
5.654512875,-2.940617377,-2.563721643,-0.297043233,3.912561041
5.664446875,-3.090584425,-2.942536433,-0.388587241,4.285000909
5.674380875,-2.910543977,-3.239281458,-0.447785622,4.377753141
5.684314875,-2.333340762,-3.10424352,-0.347145685,3.898886645
5.694248875,-1.206599262,-2.61857028,-0.092511138,2.884675095
5.704182875,-0.275193942,-1.929167475,0.195864183,1.958515159
5.714116875,-0.112744843,-1.330974217,0.384428701,1.389960141
5.724051875,-0.600392103,-1.090850559,0.559524159,1.36509813
5.733985875,-1.391885247,-1.294652483,0.615228828,1.997993019
5.743919875,-2.077583549,-1.589013306,0.611583674,2.686140592
5.753853875,-2.422156459,-1.843429167,0.712782605,3.126200897
5.763787875,-2.468626036,-2.045128725,0.871022294,3.321949103
5.773721875,-2.317542754,-2.133078888,0.975978645,3.297508799
5.783656875,-1.982670375,-1.939575519,1.03353045,2.959918952
5.793590875,-1.56277948,-1.426997193,0.882093412,2.292747147
5.803524875,-1.270870687,-0.858548428,0.56238754,1.633553627
5.813458875,-0.978382435,-0.421426081,0.074860751,1.067912105
5.823392875,-0.552858918,-0.00588113,-0.348036801,0.653312471
5.833326875,-0.062462881,0.469205435,-0.675763882,0.825052832
5.843260875,0.637469298,0.927209066,-0.988309253,1.497611077
5.853195875,1.348895348,1.270504652,-1.231105528,2.224707071
5.863129875,1.948478782,1.526206023,-1.373391674,2.830561619
5.873063875,2.483845754,1.742715555,-1.403539917,3.343123021
5.882997875,2.879308151,1.936485265,-1.446847905,3.759489257
5.892931875,3.147657343,2.06284915,-1.41283699,4.019850958
5.902865875,3.209451302,2.103545479,-1.252617434,4.03664857
5.912800875,3.274845393,2.02875579,-1.127580575,4.013963173
5.922734875,3.367496279,2.005281266,-0.980677468,4.040162427
5.932668875,3.484060523,2.008272116,-0.835812115,4.107361259
5.942602875,3.564643925,1.970612247,-0.744441769,4.140554611
5.952536875,3.493724216,1.838332149,-0.739694999,4.016556072
5.962470875,3.386260579,1.658270944,-0.798920277,3.854205085
5.972404875,3.363232489,1.523927071,-0.739875752,3.76578048
5.982339875,3.328010616,1.419947497,-0.598301139,3.667406414
5.992273875,3.231346786,1.270831219,-0.357123374,3.490580345
6.002207875,3.00915493,1.103289779,-0.058337086,3.205567804
6.012141875,2.84736832,1.036670989,0.202473894,3.036970327
6.022075875,2.614367301,1.005673437,0.413665949,2.831504011
6.032009875,2.433048068,0.939283274,0.610491414,2.678558518
6.041944875,2.268387551,0.962289729,0.788923877,2.587273563
6.051878875,1.69680468,0.930578232,0.946721517,2.1543917
6.061812875,1.073245908,0.851797818,0.939005531,1.661068237
6.071746875,0.493177557,0.855361111,0.817535473,1.281885714
6.081680875,-0.272025336,0.881456942,0.560218223,1.079262981
6.091614875,-1.064690262,0.880425201,0.172967619,1.392347545
6.101548875,-1.710248598,0.945221121,-0.226389572,1.967141447
6.111483875,-2.415484786,1.054091599,-0.683095121,2.722552992
6.121417875,-3.108291548,1.229835513,-1.353143935,3.606240458
6.131351875,-3.818718309,1.408754172,-2.098511903,4.579404989
6.141285875,-4.79730072,1.316358809,-2.662392238,5.642271452
6.151219875,-6.020930582,1.014812928,-2.949770608,6.781046895
6.161153875,-6.860373234,0.752576123,-2.631231841,7.386099967
6.171088875,-6.873289733,0.83240962,-2.308022318,7.298080881
6.181022792,-6.289985533,1.330129294,-1.907023777,6.705960157
6.190956792,-5.780815256,1.853194894,-1.226699066,6.193298551
6.200890792,-5.802402592,2.035853725,-0.983401101,6.227331206
6.210824792,-6.061422551,1.769628535,-0.968725174,6.388337573
6.220758792,-6.110193592,1.427098057,-0.780001611,6.322932635
6.230692792,-5.670181843,1.162954183,-0.342036388,5.798311259
6.240627792,-4.699192627,1.129361344,0.275182832,4.840825754
6.250561792,-3.313815916,1.309601767,0.96353577,3.691183264
6.260495792,-2.261860889,1.455452083,1.641988787,3.151266828
6.270429792,-2.027824913,1.294129157,2.026510459,3.145407572
6.280363792,-2.476801613,0.729217666,2.149254041,3.359404347
6.290297792,-2.92781139,0.083075486,1.862524127,3.471019618
6.300231792,-3.168283396,-0.480858058,1.302351512,3.45909867
6.310166792,-3.373055227,-0.982577813,0.834997598,3.611119177
6.320100792,-3.271227136,-1.377537642,0.393140468,3.571147764
6.330034792,-2.691229536,-1.569830638,-0.051369544,3.116042919
6.339968792,-1.756963173,-1.447183535,-0.4818386,2.326677505
6.349902792,-0.807217476,-1.16329186,-0.805000212,1.628764362
6.359836792,-0.064105364,-0.910276406,-1.174992723,1.487723271
6.369771792,0.269033316,-0.7587157,-1.411964586,1.625322254
6.379705792,0.376775281,-0.693314593,-1.322167141,1.539730718
6.389639792,0.490711201,-0.623879491,-1.130805314,1.38157293
6.399573792,0.789396917,-0.55447041,-0.874709548,1.302191123
6.409507792,1.263055884,-0.47880247,-0.52287615,1.448434133
6.419441792,1.958248894,-0.32836589,-0.144344959,1.99082856
6.429375792,2.67434804,-0.099649419,0.130036229,2.679361279
6.439310792,3.221708236,0.076238921,0.372495704,3.244066796
6.449244792,3.672183577,0.377543605,0.463933293,3.720578651
6.459178792,4.007489235,0.682841352,0.475747007,4.092991265
6.469112792,3.980458726,0.810130852,0.54770869,4.098822816
6.479046792,3.780600895,0.847432579,0.642975036,3.927403977
6.488980792,3.653067275,0.942618672,0.715374091,3.839946688
6.498915792,3.571820213,1.058153806,0.724409208,3.795043849
6.508849792,3.599187521,1.155517548,0.679262856,3.840673072
6.518783792,3.762934118,1.15150665,0.628252916,3.985014739
6.528717792,3.894624524,1.011161634,0.554525959,4.061778807
6.538651792,3.941650171,0.792008576,0.405847016,4.040865682
6.548585792,3.901286842,0.539248939,0.272015341,3.94776149
6.558519792,3.737898095,0.312615538,0.145440134,3.753766571
6.568454792,3.517600737,0.098823207,0.032520459,3.519138893
6.578388792,3.230966717,-0.127311719,-0.008181424,3.233484365
6.588322792,2.942763305,-0.302922316,-0.008544536,2.958325676
6.598256792,2.65202337,-0.441257498,0.00880006,2.688496527
6.608190792,2.370309198,-0.58099148,-0.004380752,2.440478638
6.618124792,2.059847775,-0.730561941,0.03864074,2.185906382
6.628059792,1.756739225,-0.851486161,0.138632202,1.957135732
6.637993792,1.328158198,-0.963561498,0.249276744,1.659696916
6.647927792,0.918381232,-1.11329495,0.371564827,1.490271839
6.657861792,0.456172868,-1.273865777,0.534657705,1.454883695
6.667795792,-0.145392187,-1.569969801,0.651536529,1.706002319
6.677729792,-0.620211825,-1.936189688,0.703359232,2.151326899
6.687663792,-0.950595882,-2.302467024,0.671705915,2.579956543
6.697597792,-1.317544917,-2.661543807,0.575271295,3.025008613
6.707532792,-1.817868941,-2.971527513,0.521403236,3.522284
6.717466792,-2.27439732,-3.090167518,0.408971804,3.858662514
6.727400792,-2.602497454,-3.052933034,0.227554922,4.018105816
6.737334792,-2.756894937,-2.729176504,0.063217757,3.879802903
6.747268792,-2.905026544,-2.198111182,0.06968009,3.643587148
6.757202792,-3.17898497,-1.872664661,0.219664671,3.6960886
6.767137792,-3.842007769,-1.781953588,0.283556045,4.244618513
6.777071792,-4.655387626,-1.999645573,0.228822617,5.071841496
6.787005792,-5.397260714,-2.404933778,0.129284277,5.910232154
6.796939792,-5.565061185,-2.925923324,-0.043468183,6.287513242
6.806873792,-4.898572156,-3.141897543,-0.151987882,5.821565911
6.816807792,-3.54575508,-2.600617281,-0.059893066,4.397633058
6.826741792,-1.984691173,-1.727140327,0.230450445,2.641045279
6.836676792,-0.860847554,-0.862937641,0.505533893,1.319577356
6.846610792,-0.618247161,-0.300241952,0.855085123,1.097062144
6.856544792,-1.255601268,-0.263422912,1.024125788,1.641572358
6.866478792,-2.302926469,-0.747484368,1.07626658,2.649632607
6.876412792,-3.101091871,-1.39711412,0.959597086,3.534052239
6.886346792,-3.397580203,-1.979686541,0.630370778,3.982471263
6.896281792,-3.249220555,-2.282768778,0.309418244,3.982989726
6.906215792,-2.566325993,-2.310919175,0.044238882,3.453741973
6.916149792,-1.557757891,-2.013361241,-0.142835784,2.549634326
6.926083792,-0.53205277,-1.527304715,-0.177514451,1.627037561
6.936017792,0.325987535,-0.981753063,-0.179451048,1.049909343
6.945951792,1.073811334,-0.492937236,-0.211034199,1.200247197
6.955885792,1.75724384,-0.135264517,-0.237344349,1.778351692
6.965820792,2.43082788,0.099668422,-0.202124212,2.441252173
6.975754792,3.177969308,0.346423554,-0.085034888,3.197925755
6.985688792,3.928472301,0.553756319,0.046059692,3.967576361
6.995622792,4.516765346,0.753102665,0.089297508,4.579989832
7.005556792,4.91305337,0.963822722,0.063166297,5.007098725
7.015490792,5.216070703,1.09797583,0.001644237,5.330379649
7.025424792,5.420471236,1.159518505,-0.138997096,5.544845514
7.035359792,5.411194628,1.140206175,-0.368696768,5.542295078
7.045293792,5.28297396,1.048215732,-0.663952507,5.426730417
7.055227792,5.256260955,0.978939383,-0.965116857,5.433051821
7.065161792,5.187167916,0.942482139,-1.164242105,5.399115044
7.075095792,4.949222492,0.975981861,-1.294739606,5.208041332
7.085029792,4.634275669,1.002142889,-1.356760438,4.931693445
7.094963792,4.214870678,1.024137483,-1.265437455,4.518332034
7.104898792,3.718560183,0.958896297,-1.177111754,4.016561219
7.114832792,3.201269293,0.867620091,-1.052639151,3.479790065
7.124766792,2.761229478,0.780804726,-0.9917825,3.03606271
7.134700792,2.344226523,0.663160209,-0.94696593,2.613794928
7.144634792,1.935159409,0.47611392,-0.824942653,2.156862718
7.154568792,1.546520128,0.324882996,-0.760937422,1.753938205
7.164502792,1.093894765,0.164123157,-0.757413232,1.340603212
7.174438,0.588332806,-0.068094042,-0.794511477,0.990969614
7.184372,0.230216575,0.047477637,-0.594299304,0.63909738
7.194306,-0.063617122,0.37114792,-0.750039309,0.839259722
7.20424,-0.372323796,0.651602018,-0.823552258,1.114203087
7.214174,-0.983163119,0.913414315,-0.889345129,1.609928628
7.224108,-1.715276619,1.171468606,-0.976637626,2.295285086
7.234042,-2.604547487,1.416312868,-1.044316224,3.143279518
7.243977,-3.69324057,1.643697636,-1.094834998,4.188129833
7.253911,-4.945805379,1.699450545,-1.156145393,5.35591217
7.263845,-6.190940132,1.583934999,-1.233686489,6.508346345
7.273779,-7.266095155,1.370774167,-1.214383661,7.493322915
7.283713,-8.116201959,1.236696051,-1.134132965,8.287847063
7.293647,-7.951299952,1.534335992,-1.105586858,8.173107131
7.303581,-6.752504384,2.211323404,-0.986267406,7.173492179
7.313516,-5.465503567,2.870435294,-0.881936706,6.236099773
7.32345,-4.37118371,3.1537785,-1.009024769,5.483766665
7.333384,-3.944857954,2.790406792,-0.863460674,4.908547512
7.343318,-4.166903629,1.718410434,-0.55711686,4.541629605
7.353252,-4.181746202,0.664407128,-0.066391644,4.234719114
7.363186,-3.337343942,0.206053248,0.505807543,3.381739759
7.373121,-2.024729397,0.332395791,0.989524305,2.277975953
7.383055,-0.934483294,0.595773095,1.325310019,1.727614325
7.392989,-0.331679215,0.65579681,1.433231494,1.610662309
7.402923,-0.249193128,0.613647741,1.528834054,1.666131547
7.412857,-0.501022766,0.494676491,1.634690877,1.779871598
7.422791,-0.992469547,0.251465941,1.733836851,2.013559323
7.432725,-1.468018334,-0.035127733,1.811705391,2.332078088
7.44266,-1.896187132,-0.141724228,1.95267182,2.725534559
7.452594,-2.195975633,-0.161606223,1.925091673,2.924791189
7.462528,-2.161569446,-0.095169867,1.628519726,2.708046579
7.472462,-1.975486486,0.041106218,1.199455719,2.311478012
7.482396,-1.689812579,0.214264786,0.832804892,1.896032684
7.49233,-1.28028295,0.433967482,0.598820372,1.478525632
7.502264,-0.838619363,0.611352709,0.494156308,1.149445531
7.512199,-0.35992419,0.694977248,0.584330971,0.976719756
7.522133,0.206473956,0.792488633,0.790619643,1.138309776
7.532067,0.805167443,0.884557136,1.081348906,1.612467486
7.542001,1.38993637,0.966751739,1.370528877,2.178274877
7.551935,1.93069389,0.979310096,1.666150067,2.731791209
7.561869,2.369011116,0.955419835,1.858898853,3.159200164
7.571803,2.74312416,0.879667694,1.982299662,3.496863932
7.581738,3.080154746,0.791414207,2.035736196,3.775964985
7.591672,3.478424392,0.778093957,1.860932368,4.020937171
7.601606,3.745631037,0.728163998,1.604415164,4.139338437
7.61154,3.873122558,0.584459318,1.399635147,4.159525164
7.621474,4.076507429,0.434196985,1.148849237,4.25749861
7.631408,4.265101769,0.355982874,0.871888851,4.367837803
7.641342,4.408484852,0.228748046,0.585970531,4.453136628
7.651277,4.512785146,0.106438913,0.362571809,4.528577849
7.661211,4.512920802,-0.018741788,0.159706171,4.515784702
7.671145,4.453275109,-0.159305052,0.053602595,4.456445953
7.681079,4.280775815,-0.250003845,0.005550177,4.288073496
7.691013,3.909208649,-0.346970853,-0.04286243,3.924810597
7.700947,3.454877654,-0.520850236,0.012069841,3.493939074
7.710881,2.977774093,-0.757749886,0.097666025,3.074225446
7.720816,2.50008581,-1.018383384,0.157746202,2.704148228
7.73075,2.071159798,-1.258849251,0.203666744,2.432259132
7.740684,1.701742653,-1.47010886,0.274350226,2.265483649
7.750618,1.384817133,-1.602977187,0.331005067,2.144019289
7.760552,1.104799823,-1.661513517,0.389185996,2.032898314
7.770486,0.832457567,-1.743882659,0.328573759,1.960120671
7.78042,0.358657098,-1.94050201,0.211692595,1.984690585
7.790355,-0.331162321,-2.234877889,0.023470687,2.259402252
7.800289,-0.935361546,-2.608772686,-0.156071505,2.775779974
7.810223,-1.435731763,-2.905658044,-0.178272213,3.245913638
7.820157,-1.839590762,-3.05785522,-0.135564223,3.571127326
7.830091,-2.071153951,-2.999889432,-0.088995792,3.646496338
7.840025,-2.102780371,-2.630602388,-0.003879043,3.367754335
7.849959,-2.071805915,-2.080267275,0.054383856,2.936468847
7.859894,-2.229693017,-1.637810951,0.006277571,2.766585453
7.869828,-2.721038641,-1.351051655,-0.201993161,3.044699181
7.879762,-3.451692091,-1.43049412,-0.418823193,3.759774539
7.889696,-4.16713401,-1.719580169,-0.653365538,4.555090377
7.89963,-4.597952181,-2.098850749,-0.8464664,5.124728685
7.909564,-4.416777374,-2.329811528,-0.775822387,5.053498244
7.919498,-3.537162012,-1.985724376,-0.346349294,4.071188307
7.929433,-2.591454402,-1.14577901,0.331471712,2.852773905
7.939367,-2.159894804,-0.480713924,0.85769532,2.373156696
7.949301,-2.218500277,-0.279686943,1.023662689,2.459238411
7.959235,-2.986084156,-0.430763208,0.967393544,3.168296987
7.969169,-3.777841594,-0.920189776,0.956209209,4.004144401
7.979103,-4.215448383,-1.328800222,1.121651498,4.560023814
7.989037,-4.341161181,-1.586768267,1.441654408,4.841681667
7.998972,-4.117081844,-1.769188824,1.646103327,4.773892349
8.008906,-3.561160739,-1.896855761,1.565516123,4.327905766
8.01884,-2.773320351,-1.797489932,1.307403652,3.554093434
8.028774,-1.850030381,-1.474164781,0.961439178,2.553456384
8.038708,-1.006751956,-1.09065877,0.668804673,1.628000536
8.048642,-0.326405611,-0.743426692,0.416376718,0.912465584
8.058576,0.352356724,-0.416893905,0.234633561,0.59414535
8.06851,1.015277781,-0.134369308,0.184687815,1.040650601
8.078445,1.63882135,0.09839139,0.165485559,1.650091438
8.088379,2.291727297,0.276752225,0.106875335,2.31085009
8.098313,2.909449378,0.375136891,0.074363719,2.934476671
8.108247,3.497110924,0.451479893,0.019192864,3.526185938
8.118181,4.039526714,0.471176823,-0.061358342,4.067376122
8.128115,4.438400377,0.431739693,-0.122860544,4.461041558
8.13805,4.818078216,0.385677082,-0.169929442,4.836476044
8.147984,5.111610196,0.376358959,-0.204087707,5.129508422
8.157918,5.278668655,0.385157849,-0.258085574,5.298990234
8.167852,5.292497905,0.384635985,-0.31602271,5.315858281
8.177786167,5.223941056,0.399463647,-0.3900455,5.253690784
8.187720167,5.042944003,0.437723441,-0.600954569,5.097453524
8.197654167,4.73828828,0.499965736,-0.966303257,4.861592697
8.207588167,4.355786237,0.605072215,-1.412728232,4.618959534
8.217523167,3.945833269,0.742414539,-1.794080129,4.397670184
8.227457167,3.348424416,0.797345037,-2.214342906,4.092800958
8.237391167,2.55837261,0.785215573,-2.727486951,3.821127972
8.247325167,1.975568347,0.750972524,-2.816389187,3.521204067
8.257259167,1.733237511,0.788920954,-2.276769535,2.968196095
8.267193167,1.371138741,0.860962451,-2.122173246,2.669250284
8.277127167,0.954379615,0.812805076,-2.115037304,2.458632819
8.287062167,0.793650182,0.772182422,-1.937684237,2.231763093
8.296996167,0.666592525,0.923872937,-1.751735762,2.08960881
8.306930167,0.201684501,1.249716923,-1.626215338,2.060836081
8.316864167,-0.342231685,1.506789759,-1.553135229,2.190837042
8.326798167,-1.067164804,1.634689708,-1.561637519,2.499952579
8.336732167,-2.053605287,1.809358903,-2.0136881,3.397942625
8.346666167,-2.985791211,2.204716489,-2.490806864,4.469881742
8.356601167,-3.967150463,2.159357445,-2.284435235,5.061595768
8.366535167,-5.088575674,1.950992207,-2.522249097,6.005140589
8.376469167,-5.93528466,2.053908173,-2.535269676,6.773015216
8.386403167,-5.938900579,1.175544115,-0.613315619,6.08511299
8.396337167,-5.269852223,0.712807748,0.738643597,5.368894831
8.406271167,-4.354454241,1.408956486,0.949911685,4.674265966
8.416205167,-3.248289678,1.935022584,1.362309446,4.01890349
8.426140167,-3.191061809,1.537800467,1.510973734,3.851070938
8.436074167,-3.925309542,0.548814106,1.194561673,4.139592917
8.446008167,-4.196989308,-0.321132592,1.293936199,4.403648065
8.455942167,-3.640872322,-0.618782474,1.697057279,4.064338374
8.465876167,-2.637429305,-0.403968927,1.943770019,3.301131036
8.475810167,-1.929678229,-0.260062225,2.174100614,2.918561959
8.485744167,-1.791559979,-0.417114345,2.424383079,3.043239203
8.495679167,-2.159656237,-0.707991104,2.54330492,3.410830747
8.505613167,-2.717756599,-0.987290668,2.562262763,3.863435552
8.515547167,-3.339643067,-1.20746465,2.466920403,4.323989243
8.525481167,-3.986019428,-1.326391754,2.316382667,4.797217384
8.535415167,-4.397055885,-1.338809486,1.984116976,5.006319154
8.545349167,-4.204287218,-1.071956889,1.477507195,4.583464857
8.555283167,-3.96990918,-0.811757547,0.890363129,4.148719768
8.565217167,-3.564807647,-0.407151566,0.392523587,3.609390631
8.575152167,-2.887993605,0.05914634,0.101198949,2.890371357
8.585086167,-2.047125987,0.51313732,-0.13334811,2.11466698
8.595020167,-1.278346937,0.77893771,-0.149188199,1.504384249
8.604954167,-0.614413726,0.956993028,0.079519794,1.140027754
8.614888167,0.151829386,1.16250307,0.369504268,1.229226975
8.624822167,0.948504918,1.361304602,0.65481097,1.783700985
8.634756167,1.665287018,1.495164325,0.919722583,2.419625351
8.644691167,2.289470272,1.567180679,1.183709167,3.016437767
8.654625167,2.851539139,1.521149059,1.415409765,3.528250944
8.664559167,3.364392577,1.473179086,1.534129293,3.980319927
8.674493167,3.82063795,1.503048418,1.440021865,4.350872541
8.684427167,4.187571198,1.50044553,1.242401179,4.618511667
8.694361167,4.440605362,1.427517887,0.990608379,4.768447154
8.704295167,4.585833242,1.30290919,0.772825323,4.829564976
8.714230167,4.734510979,1.132786205,0.637130159,4.909657181
8.724164167,4.838292625,0.930673249,0.431108193,4.945814644
8.734098167,4.875775616,0.624138523,0.236367846,4.921240343
8.744032167,4.957187569,0.307072377,0.152949146,4.969043719
8.753966167,4.949371011,0.03863957,0.140866442,4.951526005
8.763900167,4.841076484,-0.261669771,0.087815221,4.848938452
8.773834167,4.686358573,-0.538657493,0.018940301,4.717252093
8.783768167,4.386256662,-0.818013191,-0.110601254,4.463252819
8.793703167,3.986465571,-1.020052179,-0.200016912,4.119759818
8.803637167,3.436800402,-1.226162292,-0.14099508,3.651705161
8.813571167,2.799027634,-1.443163721,-0.078470822,3.150148392
8.823505167,2.252753851,-1.60267971,-0.040562135,2.76498236
8.833439167,1.701484206,-1.711894589,-0.01230722,2.413665896
8.843373167,1.169985167,-1.861100184,-0.051846695,2.198919568
8.853307167,0.657972559,-2.040991089,-0.086812469,2.146184735
8.863242167,0.252278119,-2.24303037,-0.186661816,2.264877949
8.873176167,-0.168795667,-2.46022885,-0.345174589,2.490052904
8.883110167,-0.701658862,-2.784989639,-0.510568346,2.917048591
8.893044167,-1.293333936,-3.046282703,-0.632373449,3.369339276
8.902978167,-1.762958323,-3.178597884,-0.659800399,3.694163386
8.912912167,-2.034075002,-3.198338669,-0.710453074,3.8563681
8.922846167,-2.142327429,-2.935621808,-0.727612313,3.706327278
8.932780167,-2.136598912,-2.494502889,-0.629576726,3.344243775
8.942715167,-2.059433792,-2.017661283,-0.485467418,2.923679738
8.952649167,-2.117714159,-1.625411492,-0.373975049,2.695650778
8.962583167,-2.557466877,-1.469286595,-0.328125862,2.967676954
8.972517167,-3.347229245,-1.699135672,-0.388474902,3.773846632
8.982451167,-4.088835699,-2.13203019,-0.405899641,4.629134328
8.992385167,-4.478054439,-2.480819235,-0.370617505,5.132717893
9.002319167,-4.081264139,-2.48413636,-0.206179877,4.782275669
9.012254167,-2.965484415,-1.87981639,0.063089081,3.511664521
9.022188167,-1.989541438,-0.920727866,0.441980543,2.236372451
9.032122167,-1.639499627,-0.275868711,0.738396918,1.819146113
9.042056167,-1.889659885,-0.13228156,0.762687494,2.042059036
9.051990167,-2.781566679,-0.379777534,0.73369466,2.901663664
9.061924167,-3.634077857,-0.960987554,0.72495066,3.82825971
9.071858167,-4.038408726,-1.525543826,0.803512607,4.391088876
9.081792167,-4.101609526,-1.938663061,0.871923934,4.619725805
9.091727167,-3.821201622,-2.089447842,0.7008719,4.41118981
9.101661167,-3.228637186,-1.940133928,0.456191579,3.794249398
9.111595167,-2.492961563,-1.454486415,0.230084355,2.895397537
9.121529167,-1.816112437,-0.827999358,-0.029205527,1.996171407
9.131463167,-1.271664155,-0.200225036,-0.345674599,1.332933125
9.141397167,-0.859839494,0.304222152,-0.652507021,1.121445712
9.151331167,-0.233150123,0.727263819,-0.857323364,1.148161571
9.161266167,0.576685737,1.059261122,-0.848733731,1.474771003
9.171200167,1.385375542,1.276447177,-0.646518449,1.991624687
9.18113375,2.212547811,1.387631398,-0.514550227,2.661888549
9.19106775,2.91498903,1.389180033,-0.400146017,3.253782268
9.20100175,3.480997167,1.306458157,-0.335226684,3.733169045
9.21093575,3.936872411,1.226757684,-0.286869005,4.133544801
9.22086975,4.276684518,1.202983929,-0.210483391,4.44764028
9.23080375,4.545800865,1.204181146,-0.248890243,4.709172336
9.24073875,4.743181815,1.206698665,-0.371505185,4.9083512
9.25067275,4.833432419,1.206817071,-0.481210609,5.005001503
9.26060675,4.841692781,1.178010179,-0.641653565,5.024083624
9.27054075,4.76670341,1.139107191,-0.739518414,4.956401323
9.28047475,4.605957604,1.031943516,-0.752071216,4.779682415
9.29040875,4.302335669,0.885842354,-0.680702441,4.445015714
9.30034275,4.005897038,0.710335253,-0.632303867,4.117231525
9.31027775,3.756731976,0.489665135,-0.581873971,3.832934177
9.32021175,3.479670433,0.190076316,-0.612206987,3.538224516
9.33014575,3.152638586,-0.16263241,-0.666084402,3.226336588
9.34007975,2.834151274,-0.519323967,-0.704956691,2.966323442
9.35001375,2.489647361,-0.844368053,-0.686028085,2.71697183
9.35994775,2.181435362,-1.133332335,-0.712395519,2.559415908
9.36988175,1.935313776,-1.270178085,-0.692728994,2.416333014
9.37981575,1.619105124,-1.174010244,-0.645334387,2.101489455
9.38975075,1.035533706,-0.963316061,-0.524347894,1.508392722
9.39968475,0.128562731,-0.776720154,-0.322793201,0.850892486
9.40961875,-1.326458997,-0.554944912,-0.254381948,1.460194337
9.41955275,-3.05254244,-0.17644441,-0.176162574,3.062708153
9.42948675,-4.360962777,0.260802775,0.0060437,4.368758514
9.43942075,-5.273548248,0.598394402,0.267889016,5.314146358
9.44935475,-6.061661117,0.615700114,0.313482095,6.100909207
9.45928975,-6.397656162,0.544910213,0.202568564,6.424014751
9.46922375,-6.201569785,0.629477323,0.177688698,6.235966867
9.47915775,-5.659734623,0.831781337,0.170115384,5.723058224
9.48909175,-4.948274074,1.124675093,0.197625364,5.078323164
9.49902575,-4.329388397,1.382766807,0.220424846,4.55019066
9.50895975,-4.286655191,1.254719216,0.176536796,4.469999807
9.51889375,-4.513072829,0.631740488,0.122053592,4.558708094
9.52882775,-4.074128197,0.094518194,0.187770467,4.079548015
9.53876275,-3.061568202,0.060138905,0.48747009,3.100716632
9.54869675,-1.986657007,0.367595152,0.91402798,2.217516495
9.55863075,-1.258388051,0.628070191,1.310086209,1.922066213
9.56856475,-1.040734804,0.722039039,1.435027174,1.914098299
9.57849875,-1.360267598,0.640132412,1.53504906,2.148597929
9.58843275,-1.812681876,0.416307721,1.522713774,2.40370234
9.59836675,-2.198256047,0.171610517,1.347679127,2.584186303
9.60830075,-2.376542915,0.014580909,1.227763259,2.67498999
9.61823575,-2.384169438,-0.079000854,1.017837692,2.593549423
9.62816975,-2.183710513,-0.015438403,0.621180124,2.270395273
9.63810375,-1.956102966,0.148618973,0.204032743,1.972322431
9.64803775,-1.744727874,0.30971181,-0.156917067,1.778937809
9.65797175,-1.588135346,0.482427451,-0.44789142,1.71916167
9.66790575,-1.375827624,0.625123194,-0.73288884,1.67952574
9.67783975,-1.048627961,0.720655003,-1.023511831,1.632954593
9.68777375,-0.59528456,0.797840881,-1.196183032,1.556202952
9.69770875,-0.042853074,0.867968293,-1.128109163,1.424020936
9.70764275,0.614400278,0.922779215,-0.866926319,1.407327405
9.71757675,1.337445331,0.904875918,-0.473470101,1.682775795
9.72751075,1.942660217,0.877917915,0.047362447,2.13234889
9.73744475,2.442638086,0.913280121,0.504992441,2.656233944
9.74737875,2.935268344,0.936327506,0.877820266,3.203603888
9.75731275,3.205583954,0.901545636,1.200778359,3.539833568
9.76724775,3.429180311,0.839649058,1.428187101,3.808412601
9.77718175,3.682888075,0.837506053,1.44797057,4.044959794
9.78711575,3.909116263,0.866538649,1.318211499,4.215419404
9.79704975,4.076610925,0.867246162,1.117411097,4.31502956
9.80698375,4.131977041,0.81237589,0.822566417,4.290664793
9.81691775,4.162852678,0.704629247,0.496029244,4.25110454
9.82685175,4.134098995,0.589617585,0.176194113,4.179649239
9.83678575,4.006803356,0.368201216,-0.143365542,4.026238809
9.84672075,3.907252171,0.085083712,-0.471681986,3.936539427
9.85665475,3.731771382,-0.161700656,-0.749218944,3.809671085
9.86658875,3.556257264,-0.368003873,-0.978434549,3.706713739
9.87652275,3.306363639,-0.54695323,-1.154526883,3.54459175
9.88645675,2.998488439,-0.680551583,-1.284831499,3.332397839
9.89639075,2.602200415,-0.743378161,-1.312280084,3.007679689
9.90632475,2.142095879,-0.741876596,-1.185158107,2.558037408
9.91625875,1.636926852,-0.820618125,-0.85882851,2.022505881
9.92619375,1.046679668,-0.913503192,-0.499211299,1.47622435
9.93612775,0.594103423,-1.019358553,-0.206020833,1.197704187
9.94606175,0.251957107,-1.087707242,-0.010606813,1.116558074
9.95599575,-0.05589295,-1.159283447,0.041729221,1.161379981
9.96592975,-0.246036801,-1.242074904,0.038216177,1.266785164
9.97586375,-0.558340098,-1.374530126,-0.031555084,1.483938158
9.98579775,-1.092082129,-1.660608076,-0.26797676,2.005510933
9.99573175,-1.648142397,-2.001116148,-0.565905225,2.653504837
10.00566675,-1.955382589,-2.191601623,-0.792566108,3.042170242
10.01560075,-2.086417522,-2.18822778,-0.888440564,3.151318062
10.02553475,-2.132521064,-2.092321602,-0.85992077,3.108845365
10.03546875,-2.022346072,-1.855765038,-0.66986755,2.825326538
10.04540275,-1.890808278,-1.528061345,-0.363451231,2.458093614
10.05533675,-2.094756237,-1.279839731,-0.089896281,2.456435379
10.06527075,-2.764279386,-1.30353645,0.048176379,3.056594308
10.07520475,-3.602858988,-1.610359443,-0.08018697,3.947186387
10.08513975,-4.160666989,-1.931547876,-0.214628482,4.592177303
10.09507375,-4.383775688,-2.211448535,-0.21145286,4.914540286
10.10500775,-3.963876607,-2.259113867,-0.135098748,4.564445738
10.11494175,-2.920767834,-1.776839321,0.164754657,3.422745507
10.12487575,-2.036401609,-0.875260063,0.661196129,2.313048208
10.13480975,-1.55899984,-0.114894279,0.94864759,1.828555016
10.14474375,-1.621974353,0.214404242,1.122539105,1.984153226
10.15467875,-2.570933014,-0.008478463,1.216816102,2.844364582
10.16461275,-3.573766751,-0.650787793,1.157272736,3.812428849
10.17454675,-4.073693165,-1.354417459,1.077690961,4.426154139
10.18448154,-3.928943002,-1.961455215,0.853138,4.473448795
10.19441554,-3.290660942,-2.179226576,0.561132801,3.986520779
10.20434954,-2.426972226,-2.104677792,0.297468874,3.226197533
10.21428354,-1.548549696,-1.847778034,0.063783731,2.411712708
10.22421754,-0.736283734,-1.355885695,-0.19838901,1.555602119
10.23415154,-0.052779307,-0.814369206,-0.419882709,0.917760507
10.24408654,0.426714596,-0.332033848,-0.633500208,0.832859133
10.25402054,0.876916872,0.062425459,-0.741026995,1.149783086
10.26395454,1.484935498,0.426817214,-0.705072466,1.69833258
10.27388854,2.167447652,0.724100475,-0.602242162,2.363227972
10.28382254,2.810037941,0.91792398,-0.45110684,2.990383762
10.29375654,3.374754428,1.01901883,-0.29383545,3.537471709
10.30369054,3.793627907,1.059443848,-0.178632438,3.942834451
10.31362454,4.081613803,1.106217188,-0.041043946,4.229062817
10.32355954,4.25054571,1.135673998,0.130471262,4.401581195
10.33349354,4.305663319,1.130661765,0.255252013,4.458955734
10.34342754,4.262014439,1.116826376,0.258066863,4.413464256
10.35336154,4.230010874,1.07932175,0.166152141,4.368699345
10.36329554,4.179928302,1.004236484,0.029864078,4.298974691
10.37322954,4.134201906,0.902632341,-0.089305685,4.232534235
10.38316354,4.070326338,0.81275362,-0.189157426,4.154985617
10.39309754,3.979199821,0.704338056,-0.243338896,4.048374628
10.40303254,3.850775084,0.60221585,-0.291729283,3.90848291
10.41296654,3.631989816,0.508151692,-0.30715073,3.680205122
10.42290054,3.332656229,0.366728887,-0.218833179,3.359907079
10.43283454,2.939837358,0.20818602,-0.054144047,2.947696845
10.44276854,2.592538476,0.030330385,0.140943625,2.596544008
10.45270254,2.21400026,-0.213829168,0.261146007,2.239579715
10.46263654,1.817992902,-0.382175184,0.393788924,1.899006524
10.47257054,1.53647695,-0.396483321,0.628886755,1.706885758
10.48250554,1.175015527,-0.297597257,0.770288801,1.43616519
10.49243954,0.675345222,-0.103389005,0.902500194,1.131939511
10.50237354,-0.033803923,0.029347468,0.947321441,0.948378559
10.51230754,-0.822458829,0.078456478,0.923020413,1.23877384
10.52224154,-1.666967508,0.094226126,0.87934639,1.887037177
10.53217554,-2.381250508,0.130544644,0.866943276,2.537515818
10.54210954,-3.054860276,0.079902787,0.870828166,3.177561558
10.55204354,-3.792521029,-0.100085621,0.833272669,3.884272934
10.56197854,-4.332435381,-0.177057491,0.756922066,4.401622053
10.57191254,-4.650190036,-0.087270863,0.565208164,4.685226125
10.58184654,-4.605379314,0.311328858,0.293260011,4.625196831
10.59178054,-4.200537398,1.002452206,0.036591949,4.318653011
10.60171454,-3.964784095,1.664559624,-0.201443523,4.304747514
10.61164854,-4.029504586,2.02612045,-0.382665181,4.526422863
10.62158254,-4.131004649,2.035742628,-0.503610159,4.632825342
10.63151654,-3.875637445,2.017003179,-0.353440797,4.383353491
10.64145154,-3.352789947,2.209936152,0.116143245,4.017276127
10.65138554,-2.704795661,2.48257837,0.630566075,3.725148118
10.66131954,-2.380948792,2.602435766,1.016337297,3.670767027
10.67125354,-2.677769246,2.29738711,0.971386242,3.659511838
10.68118754,-3.317064629,1.642446624,0.627308006,3.754206174
10.69112154,-4.022789059,0.999338564,0.250778893,4.152637648
10.70105554,-4.553611575,0.358939227,-0.049835819,4.568008248
10.71098954,-4.592946965,-0.125449965,-0.27528282,4.602899102
10.72092454,-4.253314952,-0.279030885,-0.411952715,4.282318455
10.73085854,-3.627386888,-0.156152818,-0.410442964,3.653872297
10.74079254,-3.031176129,0.042989607,-0.274292886,3.043864882
10.75072654,-2.717360158,0.263349237,0.104145927,2.732077126
10.76066054,-2.433087829,0.394145312,0.555546298,2.526637805
10.77059454,-1.99133244,0.561050867,0.86855243,2.243783921
10.78052854,-1.519810047,0.740270365,1.114243076,2.024687735
10.79046254,-1.093656784,0.825419566,1.258714911,1.860582126
10.80039654,-0.68765478,0.814201975,1.321495296,1.697687772
10.81033154,-0.144488207,0.76581919,1.255539873,1.477747017
10.82026554,0.546972526,0.771619043,1.1569909,1.494390456
10.83019954,1.164411601,0.787801797,1.058821996,1.759997179
10.84013354,1.61183762,0.753847016,0.973314654,2.028212822
10.85006754,1.851409739,0.585303948,0.897390897,2.139067357
10.86000154,1.928707591,0.366468686,0.82533215,2.129644437
10.86993554,1.786796252,0.057524908,0.748475763,1.938083055
10.87986954,1.577196375,-0.419423118,0.646780404,1.755502506
10.88980454,1.360114986,-0.95583908,0.522852176,1.742674818
10.89973854,1.632891104,-1.388169049,0.345600266,2.170895256
10.90967254,2.210095489,-1.526349865,-0.018636246,2.686003219
10.91960654,2.746516714,-1.357019031,-0.515973585,3.106619296
10.92954054,3.061341915,-1.010072152,-1.042144641,3.387938241
10.93947454,3.007940463,-0.564773497,-1.562378507,3.436233626
10.94940854,2.616688646,0.187168496,-1.842585121,3.205809016
10.95934254,1.906793396,1.028523333,-1.910432703,2.888507299
10.96927754,0.963660901,1.47602171,-2.041113296,2.696928977
10.97921154,0.617104615,2.655100468,-2.149685565,3.471530589
10.98914554,0.54815074,3.459950406,-2.103418887,4.086085787
10.99907954,0.406497263,3.036307645,-1.906315094,3.608107729
11.00901354,0.292351427,2.132896893,-1.961647296,2.912521009
11.01894754,0.656556948,1.105515814,-2.035025175,2.407189171
11.02888154,1.015477172,-0.1927425,-1.78156124,2.059685415
11.03881554,1.025149636,-1.820185315,-1.329444001,2.476171987
11.04874954,0.785481622,-3.532451203,-0.810259198,3.708330196
11.05868454,0.899550859,-5.146612798,-0.332941592,5.235233055
11.06861854,1.80944895,-6.090052273,0.320953631,6.361277656
11.07855254,3.008129328,-6.232802687,1.198562264,7.023761307
11.08848654,3.813154099,-6.210554032,2.032769319,7.565928672
11.09842054,4.188941785,-6.17791312,2.718954109,7.943963447
11.10835454,4.371063842,-5.797979758,3.458429253,8.042605379
11.11828854,4.396343694,-5.027472271,4.245963832,7.914008098
11.12822254,3.904905683,-4.115993969,4.98272236,7.550974564
11.13815754,2.846046849,-3.201142409,5.455738717,6.936308841
11.14809154,1.298388269,-2.501755775,5.45777004,6.142625486
11.15802554,-0.353116277,-1.974924276,4.782898443,5.186630362
11.16795954,-1.676429472,-1.363618784,3.185837322,3.84960146
11.17789354,-2.59874588,-0.901955672,1.16301229,2.986570235
11.18782663,-3.116683472,-0.8939751,-0.708673182,3.31890419
11.19776063,-3.246233212,-0.86615931,-2.286591103,4.064081802
11.20769463,-2.663079286,-0.691598142,-3.654551883,4.574499834
11.21762863,-1.561684297,-0.303600447,-4.412410673,4.690458295
11.22756363,-0.422515125,0.313780595,-4.424950612,4.456137925
11.23749762,0.061502184,0.769012793,-3.916614733,3.99187101
11.24743163,-0.327672118,0.822936254,-2.886086243,3.018954604
11.25736563,-1.481030728,0.450562318,-1.482565037,2.143468569
11.26729963,-3.070322068,-0.408250112,-0.305595334,3.112384016
11.27723363,-4.409913912,-1.541587855,0.843017712,4.747053053
11.28716763,-4.810552849,-2.317980126,1.846882825,5.650258998
11.29710163,-4.508088663,-2.509602739,2.430467691,5.703344851
11.30703663,-3.883288527,-2.39603607,2.541314528,5.222949182
11.31697063,-2.900246446,-2.237449202,2.300498121,4.325494189
11.32690463,-1.988319955,-2.039819014,1.679948326,3.30703859
11.33683863,-1.065376725,-1.75844515,0.84078985,2.22127992
11.34677263,-0.025561103,-1.612970371,0.183307835,1.623554296
11.35670663,1.024601752,-1.570461845,-0.269843155,1.894458889
11.36664063,2.000596184,-1.623034599,-0.541288447,2.632417061
11.37657462,2.801867042,-1.650782999,-0.643794742,3.315119169
11.38650863,3.581282762,-1.528949245,-0.596007861,3.939352407
11.39644363,4.351341768,-1.201927483,-0.473865373,4.539091677
11.40637763,4.850403378,-0.778163539,-0.393225253,4.928141386
11.41631163,5.058495258,-0.328152467,-0.374503638,5.082943172
11.42624562,4.992690108,0.086678394,-0.423099847,5.011335265
11.43617963,4.738735592,0.501375061,-0.383077995,4.78055862
11.44611363,4.524324042,0.816676517,-0.341225964,4.610087171
11.45604763,4.295171075,1.108820222,-0.326299192,4.447971225
11.46598163,4.096019003,1.293063794,-0.365001912,4.310755392
11.47591563,4.189064577,1.164949838,-0.476976092,4.37411435
11.48585063,3.689852693,1.765056597,-0.687437264,4.147650863
11.49578463,3.477421594,1.632483846,-0.836592718,3.931583883
11.50571863,3.134888193,1.384941679,-1.057392937,3.586595497
11.51565263,2.66474925,1.352496356,-1.171902469,3.209905039
11.52558663,2.266895342,1.101623907,-1.279373124,2.826514694
11.53552063,1.747448584,0.875179956,-1.418784778,2.415050052
11.54545463,1.251622238,0.716885011,-1.517122082,2.093356577
11.55538863,0.821914453,0.614450856,-1.564802617,1.871283103
11.56532363,0.4521149,0.56293981,-1.604861891,1.759798512
11.57525763,0.106217011,0.502413234,-1.617454455,1.697015034
11.58519163,-0.111032193,0.527433762,-1.599902283,1.688254079
11.59512563,-0.288052554,0.545251983,-1.459813521,1.584717487
11.60505963,-0.493403844,0.382855508,-1.162125925,1.31930374
11.61499363,-0.667152103,0.147302764,-0.725492113,0.996558497
11.62492763,-0.841763411,-0.054880212,-0.250829216,0.880052711
11.63486163,-1.047618147,-0.242128815,0.259377845,1.106077308
11.64479563,-1.613487119,-0.547357857,0.653804079,1.824938651
11.65473062,-2.377775508,-0.964027813,0.955914509,2.738053787
11.66466463,-3.081299046,-1.244283983,1.152605488,3.517263973
11.67459863,-3.613160613,-1.252786711,1.286787393,4.0348762
11.68453263,-4.053756498,-0.960043521,1.266736121,4.354221596
11.69446663,-4.455702873,-0.477578063,1.113599882,4.617518121
11.70440063,-4.72481805,0.111364315,0.951237906,4.820908749
11.71433463,-5.011739752,0.720362058,0.785402684,5.123798807
11.72426863,-5.496673905,1.067855652,0.605787877,5.632114937
11.73420263,-5.977694516,1.007293116,0.39127696,6.074583838
11.74413763,-5.983170433,0.899761358,0.393995916,6.063260815
11.75407163,-5.500154167,0.933859397,0.799744735,5.635901071
11.76400563,-4.836146697,1.071848716,1.349172506,5.133949843
11.77393963,-4.226310756,1.325578699,1.631076128,4.720092248
11.78387363,-3.988498648,1.657888828,1.770092511,4.667970044
11.79380762,-4.153762012,1.842678969,1.717842962,4.858002581
11.80374163,-4.443217313,1.793099843,1.623920306,5.059101136
11.81367563,-4.629554043,1.634144455,1.465229212,5.123484691
11.82361063,-4.646848937,1.408930758,1.226200299,5.00817912
11.83354463,-4.52137763,1.139954453,0.938024368,4.756284426
11.84347863,-4.192888071,0.920252633,0.64596881,4.341019579
11.85341263,-3.745808208,0.790530692,0.279078229,3.838476594
11.86334663,-3.277314087,0.756428561,-0.225966818,3.371058112
11.87328063,-2.78827402,0.838437223,-0.646331338,2.982481045
11.88321463,-2.320833567,0.998757643,-0.898204245,2.681521237
11.89314863,-1.799101133,1.119649119,-0.964099442,2.328060731
11.90308263,-1.060597211,1.24721373,-0.946789929,1.891248186
11.91301663,-0.366322798,1.330621338,-0.795383881,1.592915897
11.92295163,0.342415872,1.363352297,-0.401292071,1.461852743
11.93288563,1.028223517,1.359584936,0.029514369,1.704871226
11.94281963,1.608508215,1.396588163,0.417081856,2.170648394
11.95275363,2.051125483,1.438464459,0.811561958,2.633425252
11.96268763,2.559164908,1.487242225,1.04121603,3.13772932
11.97262163,2.903113335,1.532107911,1.15634946,3.480311159
11.98255562,3.136914838,1.58177036,1.220117367,3.718994294
11.99248963,3.261973917,1.567863927,1.215091174,3.817737247
12.00242363,3.299568005,1.649870834,1.09418011,3.847915397
12.01235863,3.324682381,1.706046789,0.89391999,3.842291182
12.02229262,3.38223594,1.720740257,0.615971498,3.844461974
12.03222663,3.470624791,1.727870059,0.307837193,3.889156093
12.04216063,3.622460024,1.735406243,-0.002413146,4.01669731
12.05209463,3.659651824,1.66106065,-0.273439193,4.028267984
12.06202863,3.646370459,1.440010756,-0.482486508,3.949992624
12.07196263,3.575258961,1.184420773,-0.622681689,3.817467969
12.08189663,3.252334782,0.824411214,-0.760908698,3.440394953
12.09183063,2.60805874,0.254200976,-0.930225279,2.780630792
12.10176563,1.828502102,-0.562716446,-1.138861681,2.226449116
12.11169963,1.140950233,-1.464649753,-1.340161947,2.289759895
12.12163363,0.802592914,-2.186410173,-1.321365488,2.677788561
12.13156763,0.928471187,-2.51216645,-0.971842325,2.849125572
12.14150163,1.184831833,-2.47109473,-0.412017071,2.771262114
12.15143563,1.190168586,-2.40112344,0.194582546,2.686960626
12.16136963,0.816688796,-2.50389878,0.510682951,2.682775944
12.17130363,-0.040425895,-2.849261064,0.536325294,2.899580605
12.18123813,-1.016892198,-3.388733366,0.448586069,3.566344491
12.19117313,-1.791540683,-3.923816164,0.210077595,4.31857429
12.20110713,-2.351346093,-4.36121216,-0.074049176,4.95524805
12.21104113,-2.676550686,-4.645949636,-0.339238495,5.372509129
12.22097513,-2.596635035,-4.656061226,-0.626865957,5.367902809
12.23090913,-2.088278691,-4.308323802,-0.811365491,4.856014398
12.24084313,-1.620989681,-3.762330101,-0.853592913,4.184657237
12.25077713,-1.248814405,-3.287773294,-0.812302215,3.609546445
12.26071113,-1.143458689,-2.924517068,-0.669765809,3.2107451
12.27064613,-1.479076588,-2.820516737,-0.431309338,3.213877714
12.28058013,-1.992091409,-2.841433689,-0.366777127,3.489512724
12.29051413,-2.18636281,-2.720543675,-0.347606446,3.507473516
12.30044813,-1.793750346,-2.379090985,-0.145852947,2.983100283
12.31038213,-1.237096585,-1.805240709,0.064291306,2.189391548
12.32031613,-0.821882878,-1.355737468,0.288800998,1.611496684
12.33025013,-0.867993436,-1.209877796,0.508728812,1.573538017
12.34018413,-1.312158462,-1.204501574,0.751624489,1.933267504
12.35011813,-2.02112225,-1.191628782,0.863731985,2.500189442
12.36005213,-2.592252547,-1.308739595,0.912584302,3.043909116
12.36998712,-2.935982289,-1.653742275,0.961714947,3.504247587
12.37992113,-3.022518741,-2.078176457,1.04839875,3.814915054
12.38985513,-2.786318711,-2.37141783,1.307047995,3.885301654
12.39978913,-2.355608128,-2.509145194,1.638726625,3.811840003
12.40972313,-1.828250087,-2.509366219,1.882235091,3.630733554
12.41965713,-1.261140921,-2.292589177,2.05966885,3.329966565
12.42959113,-0.821332655,-1.985549836,2.130042429,3.025570398
12.43952513,-0.455099319,-1.574768319,2.10937603,2.671418703
12.44945913,-0.089084669,-1.127729386,1.969545715,2.271303584
12.45939413,0.313780888,-0.710110427,1.714639857,1.882207508
12.46932813,0.789595138,-0.32278443,1.369242489,1.613218914
12.47926213,1.325374923,0.082315055,0.972090174,1.645707678
12.48919613,1.854927424,0.434768843,0.652645161,2.013883165
12.49913013,2.334707256,0.762658769,0.362694674,2.482751255
12.50906412,2.754689952,1.033167922,0.074783586,2.943016356
12.51899813,3.150638838,1.286186884,-0.146179222,3.406195848
12.52893213,3.541783651,1.532206436,-0.340756944,3.874016429
12.53886613,3.867267156,1.708284518,-0.509724008,4.258381126
12.54880113,4.031364001,1.800317354,-0.725703782,4.474336181
12.55873512,4.181526346,1.937094545,-0.876359632,4.691002458
12.56866913,4.126901658,1.702108397,-0.886451926,4.551295124
12.57860313,4.231144649,1.560560462,-1.012293363,4.62197705
12.58853713,4.313782178,1.609368633,-1.148479693,4.745291317
12.59847113,4.303181761,1.579778798,-1.153497773,4.726905058
12.60840513,4.147717161,1.472711602,-1.105816069,4.538200776
12.61833913,3.891275824,1.341326128,-1.108361946,4.262587186
12.62827313,3.572153504,1.260336928,-1.126909899,3.952044503
12.63820813,3.138573693,1.191923043,-1.162037632,3.55269712
12.64814213,2.56868359,1.120048192,-1.207957571,3.051525001
12.65807613,2.139133095,1.075357045,-1.368416862,2.757688866
12.66801013,1.85384335,1.114815226,-1.49246145,2.628115168
12.67794413,1.651680547,1.29295679,-1.585709336,2.629498049
12.68787813,1.438306292,1.384510739,-1.647637197,2.58849441
12.69781212,1.288740363,1.472501979,-1.735468808,2.615523998
12.70774613,1.072268838,1.526809748,-1.851065923,2.628184453
12.71768013,0.773971962,1.523744053,-1.964482026,2.603846802
12.72761413,0.30513344,1.40313529,-2.015731702,2.474887745
12.73754913,-0.386723149,1.208547555,-1.78530989,2.190313537
12.74748313,-1.255311247,0.96377726,-1.240352315,2.010757767
12.75741713,-2.308966643,0.674417561,-0.983046759,2.598566323
12.76735113,-3.428262298,0.395080574,-0.823014314,3.547734997
12.77728513,-4.436554996,0.085619317,-0.473348479,4.462556406
12.78721913,-5.083895563,-0.215733021,-0.052462388,5.088741213
12.79715313,-5.434834921,-0.35473654,0.472073823,5.46682013
12.80708713,-5.499969395,-0.232951025,1.040006241,5.602280117
12.81702113,-5.421008011,0.046599093,1.37837584,5.5936946
12.82695613,-5.274597239,0.32118317,1.405701048,5.468137718
12.83689013,-5.028332396,0.60333793,1.156012661,5.19466155
12.84682413,-4.585982931,0.981993383,0.790593842,4.756110708
12.85675813,-3.757534799,1.432421654,0.607342652,4.066910948
12.86669213,-2.684645571,1.959026866,0.631300412,3.382846186
12.87662613,-1.976913791,2.34362923,0.75718044,3.158181173
12.88656013,-1.853418843,2.175039385,0.781051186,2.962431212
12.89649413,-2.18619441,1.54195813,0.519285521,2.725204272
12.90642813,-2.523698037,0.85007055,0.250880781,2.674810813
12.91636213,-2.774071718,0.184155426,-0.060872,2.78084385
12.92629712,-2.922082288,-0.477766343,-0.455464185,2.995709131
12.93623113,-2.797386321,-1.003057393,-0.795432998,3.076395296
12.94616513,-2.312336978,-1.202488085,-1.104977724,2.830875424
12.95609913,-1.650193015,-1.082479246,-1.395920411,2.417331607
12.96603313,-1.233554342,-0.857106213,-1.581000574,2.180791184
12.97596713,-1.453341238,-0.759253643,-1.401939681,2.157336719
12.98590113,-1.823778137,-0.918568343,-1.00413942,2.275572559
12.99583513,-1.893654703,-1.204479647,-0.653961954,2.337598253
13.00576913,-1.740519633,-1.295845607,-0.353636679,2.198563925
13.01570413,-1.27837208,-1.179057122,-0.087643769,1.741290413
13.02563813,-0.68689932,-0.962793174,0.219289225,1.202867048
13.03557213,-0.33490337,-0.886303115,0.533564202,1.087374929
13.04550613,0.060228075,-0.823273346,0.790674534,1.143054085
13.05544013,0.56840491,-0.553268808,1.131831574,1.382111872
13.06537412,1.029234501,-0.227544397,1.442432088,1.786535876
13.07530813,1.395977713,0.05457908,1.663693067,2.172465713
13.08524213,1.670907362,0.288192303,1.78297919,2.460487961
13.09517613,1.814387509,0.437549194,1.856230184,2.632307319
13.10511013,1.884832424,0.512464598,1.984898164,2.784786159
13.11504512,1.972911957,0.606513846,1.994281191,2.870086776
13.12497913,2.088355874,0.70086978,1.895984234,2.906407563
13.13491313,2.332217512,0.68642628,1.677601254,2.953771407
13.14484713,2.690771114,0.607613122,1.373495754,3.081547254
13.15478113,3.005544274,0.623625138,1.109262418,3.263842491
13.16471513,3.300663773,0.599689853,0.899121673,3.473100783
13.17464913,3.537178384,0.598199982,0.655433114,3.646788547
13.18458267,3.619558636,0.557648664,0.386004014,3.682550183
13.19451667,3.599611444,0.517290305,0.129205997,3.638885269
13.20445167,3.443277948,0.475361383,-0.122087524,3.478079475
13.21438567,3.181785201,0.377018233,-0.322879813,3.220271912
13.22431967,2.890175786,0.235057046,-0.438869861,2.93274183
13.23425367,2.606208681,0.031844083,-0.523691325,2.658493999
13.24418767,2.301823685,-0.215960771,-0.628243561,2.395771546
13.25412167,2.026730314,-0.425562986,-0.697366348,2.18519094
13.26405567,1.84592622,-0.562111259,-0.699124678,2.052361565
13.27398967,1.643110283,-0.69471617,-0.761674683,1.939739746
13.28392367,1.400991701,-0.871391399,-0.732457389,1.805157761
13.29385767,1.140561393,-0.939107273,-0.768621175,1.665407239
13.30379267,0.812807415,-0.971311398,-0.829904673,1.514213819
13.31372667,0.399357228,-1.198992912,-0.891950063,1.546817738
13.32366067,-0.119796585,-1.593953033,-1.022764556,1.897652453
13.33359467,-0.654247298,-2.103629679,-1.115193833,2.469201215
13.34352867,-1.157058143,-2.668760148,-1.168398818,3.134680218
13.35346267,-1.45224547,-3.068400089,-1.06421905,3.557619737
13.36339667,-1.677200135,-3.202347228,-0.805609492,3.703651538
13.37333067,-1.894922964,-3.154986243,-0.591090353,3.727473546
13.38326467,-2.169977158,-2.947505397,-0.427915102,3.685064486
13.39319867,-2.684547923,-2.664558631,-0.294913165,3.793895626
13.40313367,-3.292210454,-2.248013805,-0.309787824,3.998522757
13.41306767,-3.676531566,-1.875771871,-0.399664791,4.146701872
13.42300167,-3.859306172,-2.002902618,-0.365272053,4.36340311
13.43293567,-3.977516407,-2.468769293,-0.156524116,4.68401093
13.44286967,-3.953549255,-2.932339181,0.335914317,4.933761568
13.45280367,-3.767098505,-3.124378992,0.856003135,4.968452133
13.46273767,-3.429295501,-2.85461302,1.166284465,4.611843729
13.47267167,-2.980198349,-2.235606014,1.260859085,3.933100822
13.48260567,-2.461333973,-1.370528,1.194671527,3.060024834
13.49253967,-1.829141788,-0.600257179,1.124476288,2.229465246
13.50247467,-1.4412299,-0.187656154,1.10851105,1.827882711
13.51240867,-1.547326459,-0.213646443,1.067986922,1.892210358
13.52234267,-1.635565621,-0.530580149,1.22797142,2.112937293
13.53227667,-1.404075522,-1.00571086,1.258599136,2.137043329
13.54221067,-0.890168417,-1.585301785,1.235885042,2.198407014
13.55214467,-0.335358283,-1.992119037,1.225582248,2.362848976
13.56207867,0.316334367,-2.022866474,1.127606302,2.337424262
13.57201267,0.943893803,-1.764075726,0.987212316,2.231028202
13.58194667,1.359936646,-1.388020238,0.715970507,2.070903577
13.59188067,1.55539854,-0.988107963,0.453414152,1.897684473
13.60181567,1.742766134,-0.643695413,0.222209398,1.871083803
13.61174967,1.867752122,-0.268982445,0.103339012,1.889848803
13.62168367,1.975009353,0.173853509,0.174621248,1.990321474
13.63161767,2.205747499,0.541835747,0.260648993,2.286229627
13.64155167,2.48181677,0.87424908,0.214768231,2.640047599
13.65148567,2.742940557,1.181271755,0.18799383,2.992401634
13.66141967,2.994194244,1.368261619,0.225593766,3.299732046
13.67135367,3.232206327,1.522772246,0.25887027,3.582318644
13.68128767,3.483083453,1.747729835,0.162430973,3.900360719
13.69122167,3.70896841,1.924087706,-0.007643462,4.178351181
13.70115667,3.917826861,1.990483425,-0.204258464,4.399217327
13.71109067,4.004587262,1.955107185,-0.395417337,4.473870596
13.72102467,4.04375542,1.92677304,-0.51375157,4.508697475
13.73095867,3.988654768,1.918037007,-0.604315585,4.466926253
13.74089267,3.853757164,1.84886737,-0.619542319,4.318979917
13.75082667,3.636353009,1.74617009,-0.599165357,4.078133435
13.76076067,3.36928962,1.625700783,-0.592428122,3.787609623
13.77069467,3.087533932,1.562274281,-0.61113585,3.513837466
13.78062867,2.823530976,1.50564926,-0.663901051,3.268037863
13.79056267,2.419987142,1.420157704,-0.833458611,2.927087106
13.80049767,1.914606446,1.272384531,-0.973816418,2.496597415
13.81043167,1.573428429,0.820475453,-0.91380447,1.99596984
13.82036567,0.96858718,0.167009051,-0.977134713,1.385945668
13.83029967,0.178834752,-0.457240862,-1.044902115,1.154500543
13.84023367,-0.326862863,-0.734599443,-1.139951529,1.394978552
13.85016767,-0.638815327,-0.714882925,-1.693178236,1.945763387
13.86010167,-0.87876927,-0.46757757,-1.923431064,2.165744969
13.87003567,-1.219958981,0.222061171,-2.12735271,2.462364845
13.87996967,-1.879165303,0.965640183,-2.803619453,3.510556257
13.88990367,-2.995435608,1.229403696,-3.143638551,4.512929345
13.89983867,-4.339529808,1.408191962,-3.21110431,5.579042431
13.90977267,-5.540559597,1.516158753,-3.41290634,6.68165157
13.91970667,-6.612213308,1.053994828,-3.625437427,7.61420163
13.92964067,-6.796278394,0.037300266,-2.503039824,7.242651426
13.93957467,-5.962922695,-0.844774143,0.609889078,6.053268134
13.94950867,-5.467461215,-0.889512359,3.517879064,6.561999504
13.95944267,-5.144672107,0.04441048,2.844518387,5.878852629
13.96937667,-4.46824515,0.497925496,1.17062361,4.645805007
13.97931067,-4.010761337,0.400894461,1.418402224,4.273030276
13.98924467,-3.682465321,0.530595644,1.437769518,3.988641844
13.99917967,-3.535025439,0.278580649,1.250477353,3.760014049
14.00911367,-3.108058244,-0.058786152,1.321352624,3.377788421
14.01904767,-2.141088989,0.25665593,1.202010879,2.468798185
14.02898167,-1.131040372,0.889401262,1.114512998,1.820007184
14.03891567,-0.506295785,1.276251588,0.93611993,1.661768353
14.04884967,-0.443423599,1.190935156,0.672137878,1.437609252
14.05878367,-0.575016357,0.892405561,0.681216411,1.261383088
14.06871767,-0.64515137,0.675215121,0.664849616,1.14636851
14.07865167,-0.786017227,0.186783749,0.392918712,0.898385421
14.08858567,-1.053474133,-0.427770603,0.225144115,1.159088137
14.09852067,-1.397112658,-0.991236077,0.153117089,1.719859757
14.10845467,-1.491351063,-1.3246525,0.010665468,1.994729553
14.11838867,-1.383683943,-1.208724433,-0.189782932,1.847055378
14.12832267,-1.109852986,-0.758355803,-0.439206002,1.414135456
14.13825667,-0.910881593,-0.307952968,-0.71027605,1.195421421
14.14819067,-0.852986557,-0.034249481,-0.928466583,1.261272884
14.15812467,-0.732769557,0.253696069,-1.039996301,1.297268371
14.16805867,-0.543261883,0.487181822,-1.0634565,1.289736146
14.17799267,-0.229716638,0.716444716,-0.58479524,0.952915651
14.18792688,0.266074625,1.280978477,0.007628278,1.308342369
14.19786088,0.538232108,1.549879353,0.236224004,1.657595123
14.20779588,0.582656913,1.406617892,0.512316042,1.606403031
14.21772988,0.854668216,1.493118092,0.946028622,1.963371984
14.22766388,1.437285368,1.803250609,1.195829861,2.597597168
14.23759788,1.747812281,1.788727295,1.528240562,2.93085522
14.24753188,1.953154215,1.66060486,1.92207334,3.20418255
14.25746588,2.291536678,1.610861719,2.126368039,3.516739521
14.26739988,2.731139706,1.574718325,2.100333896,3.78817428
14.27733388,3.116270658,1.528679688,1.867253355,3.941400702
14.28726787,3.333103541,1.44569191,1.596400385,3.968387394
14.29720188,3.556484721,1.387780502,1.277322505,4.025676474
14.30713688,3.732078361,1.31398367,0.89723887,4.057092502
14.31707088,3.816106943,1.210130396,0.478187708,4.031842167
14.32700488,3.854331361,1.096826559,0.079917332,4.008152383
14.33693887,3.872998012,0.980338621,-0.286206588,4.005382832
14.34687288,3.824913434,0.780476697,-0.547004612,3.941867667
14.35680688,3.859067606,0.546946506,-0.724645436,3.964424835
14.36674088,3.827941123,0.35645416,-0.790366386,3.924904054
14.37667488,3.623392655,0.146213136,-0.797433842,3.712984426
14.38660888,3.330992696,-0.111136274,-0.690452088,3.403613918
14.39654288,2.880826088,-0.312073501,-0.547428609,2.948936571
14.40647688,2.266964339,-0.551874831,-0.425038199,2.371571339
14.41641188,1.622467273,-0.902958908,-0.373699134,1.894039568
14.42634588,0.83455321,-1.379416937,-0.347812341,1.649316092
14.43627988,-0.010925522,-1.874776675,-0.215570542,1.887161256
14.44621388,-0.752888657,-2.280461175,0.009296415,2.40154761
14.45614788,-1.268419535,-2.56545505,0.148251475,2.865733105
14.46608188,-1.660992238,-2.766675867,0.203916932,3.233415019
14.47601587,-1.974699451,-2.864639533,0.253354007,3.488522012
14.48594988,-2.343534797,-2.862446535,0.302051373,3.711736864
14.49588388,-2.659047046,-2.797235463,0.354378691,3.87564726
14.50581788,-2.921682338,-2.633663113,0.436105224,3.957599884
14.51575188,-3.024234899,-2.355666016,0.484239467,3.863890134
14.52568688,-3.007337615,-2.013554491,0.458676646,3.64813178
14.53562088,-2.933311281,-1.626651248,0.371926733,3.374705742
14.54555488,-2.97031597,-1.38549044,0.292927926,3.290618101
14.55548888,-3.201877404,-1.403836079,0.191478131,3.5013481
14.56542288,-3.52263402,-1.714779605,-0.014851891,3.917861676
14.57535688,-3.483969891,-2.158761906,-0.305977778,4.109978293
14.58529088,-2.818519328,-2.161012207,-0.345900228,3.568427094
14.59522488,-1.672080313,-1.631981862,-0.052595705,2.337088719
14.60515888,-0.543078865,-0.784839597,0.299677404,1.000357133
14.61509287,-0.132919491,-0.032465203,0.601082623,0.616459163
14.62502788,-0.481784842,0.231399759,0.844604573,0.999509563
14.63496188,-1.455231643,-0.081392365,0.909974105,1.718248155
14.64489588,-2.585185018,-0.702409936,0.874640551,2.818076895
14.65482988,-3.354230701,-1.41805183,0.733451343,3.714792788
14.66476388,-3.590064111,-2.052111616,0.609026102,4.179788894
14.67469788,-3.415230609,-2.342767643,0.447234814,4.16561872
14.68463188,-2.837802275,-2.359268485,0.337102507,3.705793794
14.69456588,-1.933428633,-1.976347488,0.480824766,2.806294377
14.70449988,-1.016292273,-1.26243871,0.743164737,1.782945683
14.71443388,-0.338708737,-0.537438641,0.891240796,1.094474329
14.72436788,0.137030084,-0.008518516,0.736103713,0.748798027
14.73430288,0.6910257,0.403084535,0.594184772,0.996518542
14.74423688,1.351300308,0.688295927,0.559818347,1.616527262
14.75417088,2.036096385,0.936685356,0.478952451,2.291825341
14.76410488,2.740575943,1.101784413,0.398494763,2.980517316
14.77403888,3.40312044,1.21769757,0.316974052,3.628290045
14.78397288,3.999170401,1.319204064,0.299790255,4.221793157
14.79390688,4.531338946,1.429342803,0.302741929,4.761061454
14.80384087,4.900278373,1.516524496,0.288294629,5.13767345
14.81377488,5.132839682,1.603852077,0.188605449,5.380888096
14.82370888,5.235685773,1.726988007,-0.018136903,5.513186196
14.83364288,5.205312996,1.808777105,-0.299351129,5.518747059
14.84357787,5.012107542,1.856067924,-0.585827858,5.37674664
14.85351188,4.73754276,1.883641931,-0.85697085,5.169798581
14.86344588,4.368394003,1.914532479,-1.134208978,4.9025229
14.87337988,3.97124293,1.918786036,-1.360324901,4.615516666
14.88331388,3.598190571,1.828933627,-1.525098268,4.314846269
14.89324788,3.234481478,1.640929564,-1.532551714,3.937414764
14.90318188,2.828152031,1.367388922,-1.393378626,3.436524461
14.91311588,2.416702176,1.042546856,-1.092353439,2.849664786
14.92304988,1.973827631,0.770469773,-0.715416191,2.236389839
14.93298388,1.649480824,0.542389478,-0.441464745,1.79160946
14.94291787,1.331308093,0.512139785,-0.247264095,1.447690551
14.95285288,0.807092931,0.519041546,-0.171300614,0.974754854
14.96278688,0.234634146,0.469185846,-0.223342624,0.570149515
14.97272088,-0.425337576,0.427683772,-0.387179816,0.716752169
14.98265488,-1.243341411,0.301321056,-0.525918456,1.383214541
14.99258888,-2.204127821,0.228463579,-0.696423265,2.32279582
15.00252288,-3.198476079,0.386259757,-1.26665543,3.461771483
15.01245688,-4.586733713,0.675679682,-2.704895064,5.367599696
15.02239088,-5.482344718,0.257158498,-2.758616942,6.142654274
15.03232488,-5.663732949,-0.300266511,-0.927392961,5.747006925
15.04225888,-6.245524474,-0.130413959,0.252786827,6.251998476
15.05219288,-6.350632854,0.044497896,0.231883031,6.355020649
15.06212688,-5.728992553,0.29123724,0.669517887,5.775329342
15.07206188,-5.156212757,0.646566103,1.129472734,5.317921246
15.08199588,-5.055980955,0.553761143,1.15909122,5.216616459
15.09192988,-5.202463063,-0.020380178,1.286643552,5.359243314
15.10186388,-4.958055296,-0.59341199,1.493067806,5.21188081
15.11179788,-3.992026273,-0.750025568,1.531424371,4.34097601
15.12173188,-2.795753778,-0.557015703,1.551773851,3.245690646
15.13166588,-1.97068943,-0.430891262,1.660321562,2.612652254
15.14159988,-1.734895781,-0.430788058,1.600876429,2.399634777
15.15153388,-1.9207086,-0.66414488,1.415905024,2.476892607
15.16146788,-2.167703176,-1.094873297,1.019243509,2.633731559
15.17140188,-2.236657636,-1.529006547,0.684154637,2.794381142
15.18133688,-2.032105075,-1.845820971,0.457370378,2.783108649
15.191271,-1.618674769,-2.022376478,0.236745503,2.601184933
15.201205,-1.136234454,-1.972926867,0.035839924,2.277005415
15.211139,-0.706491585,-1.772523783,-0.141066417,1.913340183
15.221073,-0.338360828,-1.403628503,-0.34747079,1.485057903
15.231007,-0.241317514,-0.94929897,-0.426550874,1.068339049
15.240941,-0.130640246,-0.650098114,-0.484503797,0.821241963
15.250875,0.1017474,-0.359766023,-0.480475066,0.608802442
15.260809,0.553821369,-0.035562473,-0.41910386,0.695435722
15.270743,1.12096445,0.404273567,-0.229052979,1.213451145
15.280677,1.615237775,0.672349693,0.095157588,1.752170696
15.290612,2.088706123,0.928500423,0.495615846,2.338897469
15.300546,2.555364802,1.234552169,0.883331852,2.972252259
15.31048,2.927223744,1.461882266,1.279538015,3.513254352
15.320414,3.235670802,1.643809025,1.65110635,3.987207774
15.330348,3.405583872,1.777521691,1.900052726,4.28576542
15.340282,3.503749267,1.85670644,1.872091341,4.385013537
15.350216,3.577758061,1.823111847,1.654345708,4.342919441
15.36015,3.658581784,1.714277622,1.373751862,4.267453879
15.370084,3.863999147,1.603186956,1.073659891,4.318963231
15.380018,4.061107618,1.53288179,0.804660489,4.414725378
15.389952,4.210300494,1.373604512,0.500822207,4.45693196
15.399887,4.175949272,1.098443314,0.207691346,4.322992682
15.409821,4.192089926,0.822145418,-0.159794427,4.274935707
15.419755,4.215562989,0.603653972,-0.447929463,4.282056776
15.429689,4.195535105,0.386702099,-0.616080183,4.258122606
15.439623,3.996101782,0.186612864,-0.767515467,4.073417951
15.449557,3.60840858,-0.063597826,-0.810089629,3.698770387
15.459491,3.225360991,-0.244208962,-0.814421246,3.335546958
15.469425,2.627626448,-0.237257207,-0.616525156,2.709393843
15.479359,1.997164453,-0.238098914,-0.385871794,2.04798779
15.489293,1.349947847,-0.349033751,-0.246654267,1.415988021
15.499227,0.507065864,-0.63195742,-0.122871051,0.81950184
15.509161,-0.191220909,-0.968742277,-0.03195973,0.987951649
15.519095,-0.719275353,-1.20863497,0.122427832,1.411787555
15.52903,-1.207548265,-1.423214629,0.179515368,1.875083587
15.538964,-1.785229783,-1.756841843,0.051546705,2.505233663
15.548898,-2.301444785,-2.133986376,-0.173601494,3.143355441
15.558832,-2.680701624,-2.425916803,-0.352323979,3.632542597
15.568766,-2.974186242,-2.593813754,-0.520667657,3.980546244
15.5787,-3.193273811,-2.669266809,-0.609730107,4.206394386
15.588634,-3.205742998,-2.625012158,-0.564927571,4.18170063
15.598568,-3.149489275,-2.452045964,-0.341718299,4.006068334
15.608502,-2.943620507,-2.196377336,0.041041607,3.672963314
15.618436,-2.736787532,-1.937672835,0.356705883,3.372213086
15.62837,-2.757743953,-1.7906177,0.605659275,3.343394475
15.638305,-3.102765929,-1.912318431,0.83264117,3.738637387
15.648239,-3.52484953,-2.222191916,0.978029848,4.280098539
15.658173,-3.793733742,-2.664591376,0.866282541,4.716238792
15.668107,-3.698497801,-3.06224414,0.504312994,4.82810074
15.678041,-3.077234647,-3.08721906,0.253876766,4.366319732
15.687975,-1.800834832,-2.667131114,0.235520018,3.226773024
15.697909,-0.439707109,-1.881954424,0.428109741,1.979488001
15.707843,0.31057369,-1.122329483,0.684788475,1.350931064
15.717777,0.16882198,-0.698447571,0.955563676,1.195588478
15.727711,-0.702044193,-0.737833246,1.262392809,1.622004794
15.737645,-1.723353962,-1.142539799,1.273959771,2.428645625
15.747579,-2.393421487,-1.614776722,1.019452693,3.061903668
15.757514,-2.675689976,-2.150937162,0.694209509,3.502538274
15.767448,-2.653569959,-2.466821585,0.331857518,3.63823744
15.777382,-2.218166986,-2.459580393,0.019335573,3.312125353
15.787316,-1.474801104,-2.13555723,-0.15409288,2.599882227
15.79725,-0.696260127,-1.575713229,-0.176916829,1.731747646
15.807184,-0.094454752,-0.942942754,-0.105874364,0.953557611
15.817118,0.43441187,-0.377492734,-0.111749647,0.586261393
15.827052,1.027639965,0.006286634,-0.071179252,1.030121306
15.836986,1.682954965,0.25665593,0.052559416,1.703224052
15.84692,2.321769122,0.504112143,0.260119236,2.390063372
15.856854,2.952564992,0.645688729,0.41540608,3.050756657
15.866788,3.482257826,0.769862832,0.501962377,3.601496158
15.876723,3.999584969,0.922470482,0.535921873,4.13942556
15.886657,4.372884665,1.08084378,0.482211689,4.530217619
15.896591,4.604346111,1.182647313,0.339118627,4.765884936
15.906525,4.710212874,1.28109659,0.053016695,4.881610858
15.916459,4.710863085,1.387658003,-0.322413132,4.92156235
15.926393,4.774403023,1.45735389,-0.702641194,5.041082149
15.936327,4.681156306,1.532150595,-1.061623982,5.038626329
15.946261,4.450402957,1.534205014,-1.337802011,4.893831395
15.956195,4.214102939,1.513377525,-1.514661573,4.726856756
15.966129,3.833518782,1.431962356,-1.535303999,4.370759752
15.976063,3.471741609,1.298648178,-1.538103061,4.013133179
15.985997,3.138168481,1.146980467,-1.42447295,3.632187879
15.995932,2.781765484,0.955340313,-1.218316498,3.183581224
16.005866,2.468804961,0.721251419,-1.034154932,2.772125172
16.0158,2.170116906,0.432469718,-0.819794837,2.359767153
16.025734,1.893878651,0.184270324,-0.603249053,1.996156637
16.035668,1.666958152,0.043829267,-0.313384447,1.696726347
16.045602,1.527900254,0.052940983,-0.059741021,1.529983962
16.055536,1.436561483,0.154107169,0.118959245,1.449692801
16.06547,1.170212624,0.282217618,0.10553698,1.208380082
16.075404,0.737032762,0.371958929,-0.056850139,0.827528051
16.085338,0.196305647,0.46314158,-0.216596071,0.54767681
16.095272,-0.599988061,0.457295533,-0.474128498,0.891012183
16.105206,-1.587570505,0.287210847,-0.847574959,1.822430655
16.11514,-2.580619512,0.060631826,-1.258621355,2.871828859
16.125075,-3.414462284,-0.102631791,-1.657581557,3.796928047
16.135009,-4.186743817,-0.24747317,-1.982368074,4.638949228
16.144943,-4.951393563,-0.37262405,-2.090920463,5.387679954
16.154877,-5.567207113,-0.490516782,-1.810212597,5.874629469
16.164811,-5.727055371,-0.373484176,-1.250176222,5.873805771
16.174745,-5.422479755,0.070474444,-0.533906338,5.449156753
16.18467854,-5.294418131,0.444441307,-0.146554622,5.315060646
16.19461254,-5.526926814,0.353745145,-0.116153194,5.539453691
16.20454654,-5.957250896,0.049822663,-0.05607071,5.957723093
16.21448054,-6.07081201,-0.183396749,0.212217091,6.077287957
16.22441454,-5.704326659,-0.227227186,0.747425019,5.75757058
16.23434854,-4.777468134,0.045477597,1.162323561,4.91703834
16.24428354,-3.851303673,0.43516236,1.489461243,4.152156193
16.25421754,-3.323855,0.678722281,1.67084772,3.781588039
16.26415154,-3.110553836,0.786080669,1.636460245,3.601592719
16.27408554,-2.998353369,0.735017227,1.44917802,3.410350449
16.28401954,-2.897583039,0.463390963,1.197092274,3.169187367
16.29395354,-2.716446823,0.183435049,0.90309778,2.868504377
16.30388754,-2.411181235,-0.044873287,0.643533445,2.495985548
16.31382154,-1.999605666,-0.166146586,0.378256381,2.041838729
16.32375554,-1.589551542,-0.212648908,0.027700599,1.603951678
16.33368954,-1.168850223,-0.203439543,-0.285056441,1.220186734
16.34362354,-0.83668452,-0.101528714,-0.532597731,0.997000205
16.35355754,-0.445613381,0.027917239,-0.658385957,0.795501557
16.36349154,0.006912578,0.18545994,-0.683845904,0.708581959
16.37342654,0.517064602,0.340173173,-0.569558566,0.841112686
16.38336054,1.028786019,0.494301977,-0.231285446,1.164572056
16.39329454,1.588592598,0.647463651,0.123576225,1.719914738
16.40322854,2.165556078,0.85987253,0.603389386,2.406884427
16.41316254,2.703743162,1.046007823,0.966306181,3.055831653
16.42309654,3.033436078,1.219043891,1.305927669,3.520404739
16.43303054,3.297860618,1.387707704,1.581529162,3.911885967
16.44296454,3.371038522,1.529438949,1.771647871,4.103878701
16.45289854,3.314518751,1.595831451,1.80661422,4.098361564
16.46283254,3.23140058,1.616443179,1.678562536,3.984019384
16.47276654,3.195736658,1.647450964,1.468334084,3.883662247
16.48270054,3.236584722,1.663052797,1.227084982,3.840177446
16.49263454,3.381401542,1.68828207,0.876082474,3.879651175
16.50256954,3.524972906,1.669569811,0.487977043,3.930778414
16.51250354,3.523342118,1.572717116,0.220001489,3.864683617
16.52243754,3.411018859,1.35399032,-0.008499517,3.669933471
16.53237154,3.325880476,1.139767634,-0.199705803,3.52142494
16.54230554,3.243107876,0.924205936,-0.279757694,3.383809934
16.55223954,3.20067814,0.680950363,-0.274356036,3.283794328
16.56217354,3.144902719,0.472136351,-0.238020269,3.189040529
16.57210754,3.005188179,0.267064266,-0.161256852,3.021337963
16.58204154,2.753076121,0.064485725,-0.032218161,2.754019707
16.59197554,2.463794482,-0.092528095,0.105037043,2.467767711
16.60190954,2.102985608,-0.19522172,0.236101213,2.125183232
16.61184354,1.709792515,-0.359056756,0.390376489,1.790169266
16.62177754,1.294512734,-0.558937391,0.44873521,1.479708591
16.63171254,0.76428488,-0.824838645,0.490470296,1.226805315
16.64164654,0.149299881,-1.250179145,0.478354865,1.346871088
16.65158054,-0.394970647,-1.751334205,0.44759968,1.850275326
16.66151454,-0.742984643,-2.187248663,0.386483413,2.342104251
16.67144854,-1.052389475,-2.50703698,0.362380021,2.74300516
16.68138254,-1.405395824,-2.665583356,0.373253503,3.036410747
16.69131654,-1.80021912,-2.723024063,0.391700299,3.287716237
16.70125054,-2.228513049,-2.731748402,0.364204352,3.544201539
16.71118454,-2.470322313,-2.559378916,0.330426157,3.572407341
16.72111854,-2.356272957,-2.258289995,0.284642421,3.276113132
16.73105254,-2.064805629,-1.798757609,0.310080148,2.755921065
16.74098654,-1.782155317,-1.35105414,0.382992625,2.268944295
16.75092054,-1.704863897,-1.075747639,0.423373497,2.059863832
16.76085554,-1.902137259,-1.075535678,0.438200903,2.228659502
16.77078954,-2.368517611,-1.438631397,0.360573194,2.794557031
16.78072354,-2.84539547,-2.118170242,0.201382785,3.552953079
16.79065754,-3.21308827,-2.619851697,0.15197849,4.14857284
16.80059154,-3.113524221,-2.765093318,0.274950113,4.173172858
16.81052554,-2.446829955,-2.38487432,0.512265281,3.454998997
16.82045954,-1.594348013,-1.328233335,0.83599411,2.237193673
16.83039354,-1.302405306,-0.172431466,1.140325312,1.739636172
16.84032754,-1.709506586,0.467569091,1.123004544,2.09813556
16.85026154,-2.585204898,0.631564195,1.015125681,2.848269272
16.86019554,-3.438277409,0.439043742,0.977048612,3.601268518
16.87012954,-4.049548842,0.048380155,1.018244586,4.175884158
16.88006354,-4.30359399,-0.455217725,1.176015255,4.484546386
16.88999854,-3.960471189,-0.897966848,1.261920208,4.252542664
16.89993254,-3.256362929,-1.265575157,1.299920239,3.727649746
16.90986654,-2.484729853,-1.402081037,1.151800911,3.076744873
16.91980054,-1.541049473,-1.243314807,0.724617442,2.108491314
16.92973454,-0.707812471,-0.91815436,0.166416435,1.171196121
16.93966854,-0.129634525,-0.688106478,-0.379014034,0.796208058
16.94960254,0.38831593,-0.595920153,-0.881622126,1.132769908
16.95953654,0.949891877,-0.496298508,-1.274136357,1.664941514
16.96947054,1.550198026,-0.46332489,-1.383210318,2.128627412
16.97940454,2.251015474,-0.455853318,-1.299622031,2.638918402
16.98933854,2.939858408,-0.477906969,-1.1125544,3.1794559
16.99927254,3.566751262,-0.506944534,-0.843524008,3.700032443
17.00920654,4.146419079,-0.517294544,-0.694258626,4.235844645
17.01914054,4.579896564,-0.476866895,-0.643510641,4.649404318
17.02907554,4.787877932,-0.431392953,-0.710791043,4.859536899
17.03900954,4.884175726,-0.304932881,-1.010250345,4.996875258
17.04894354,4.879480412,-0.154811466,-1.40779669,5.080864809
17.05887754,4.668935625,-0.135405873,-1.708469875,4.973546414
17.06881154,4.393975571,-0.152989182,-1.828017368,4.761520189
17.07874554,4.176928096,-0.140201906,-1.779605931,4.542398283
17.08867954,4.040631838,-0.118251166,-1.608979501,4.350804985
17.09861354,3.968265527,-0.185094781,-1.439779791,4.22544166
17.10854754,3.849939517,-0.342291034,-1.2632313,4.066319067
17.11848154,3.693425342,-0.503226289,-1.112459675,3.89001208
17.12841554,3.51186111,-0.631749551,-0.959626322,3.695018082
17.13834954,3.240024054,-0.770993391,-0.773059797,3.41903614
17.14828354,2.944615703,-0.792688461,-0.569787776,3.102220937
17.15821754,2.757565613,-0.733700434,-0.465037247,2.891149266
17.16815254,2.613605994,-0.627975758,-0.334574171,2.708732124
17.17808654,2.414544554,-0.445965384,-0.234419553,2.466548814
17.18802079,2.263054306,-0.159089874,-0.28247548,2.286157645
17.19795479,2.035498799,0.150571066,-0.409223235,2.081679769
17.20788879,1.677365611,0.437540715,-0.555659149,1.820372039
17.21782279,1.060046988,0.604193963,-0.755220526,1.434959235
17.22775679,0.302639603,0.665181884,-1.087298521,1.310067076
17.23769079,-0.590242506,0.583946517,-1.369628406,1.601643443
17.24762479,-1.509300846,0.338250901,-1.548171966,2.188433036
17.25755879,-2.342767643,0.183217532,-1.766680076,2.939946833
17.26749279,-3.088629116,0.18471939,-2.026536187,3.69872951
17.27742679,-3.926754389,0.231978341,-2.487827708,4.654299162
17.28736079,-4.745697287,0.162125164,-2.672927166,5.449079459
17.29729479,-5.088729456,-0.020847078,-2.068715077,5.493194348
17.30722979,-4.856422502,0.474457404,-1.384348186,5.072116841
17.31716379,-4.299765233,1.119896749,-0.774880035,4.510275918
17.32709779,-4.21937245,1.295799414,-0.41941727,4.433746817
17.33703179,-4.667512997,0.979447506,-0.298620812,4.77851121
17.34696579,-5.251328829,0.477671326,-0.136793856,5.274783116
17.35689979,-5.695095659,-0.05473754,0.214888684,5.69941119
17.36683379,-5.732837098,-0.502420543,0.752239031,5.803766979
17.37676779,-5.030625089,-0.60665681,1.06530305,5.177846257
17.38670179,-3.911535841,-0.269230659,1.244154174,4.113455651
17.39663579,-3.140936553,0.290630299,1.618321012,3.545266041
17.40656979,-2.772604651,0.709517519,1.804564186,3.383371627
17.41650379,-2.70278071,0.9181184,1.669223363,3.306701015
17.42643779,-2.741379935,0.82736435,1.295841222,3.143071776
17.43637179,-2.710874426,0.464912701,0.879097298,2.887524205
17.44630579,-2.679310572,0.017329978,0.568046476,2.738919909
17.45624079,-2.468293914,-0.389307618,0.281894833,2.514657027
17.46617479,-2.181339467,-0.745554787,-0.009124014,2.305249891
17.47610879,-1.799714506,-0.959138956,-0.311275356,2.062961994
17.48604279,-1.285225602,-0.918427717,-0.581094537,1.683147403
17.49597679,-0.76194307,-0.68472474,-0.736213567,1.26151323
17.50591079,-0.392107265,-0.444890373,-0.741466706,0.949446379
17.51584479,-0.068109537,-0.238269945,-0.663153777,0.707943789
17.52577879,0.30674201,-0.011038958,-0.423283449,0.52285887
17.53571279,0.749631173,0.236518119,-0.059227599,0.788286512
17.54564679,1.200975995,0.427660675,0.436316893,1.347445518
17.55558079,1.618760723,0.590555625,0.915753493,1.95134484
17.56551479,2.006461526,0.765328608,1.330695305,2.526334445
17.57544879,2.352347721,0.840748042,1.672698948,3.00637969
17.58538279,2.610455514,0.895023067,1.860326743,3.328116566
17.59531779,2.796422115,0.945429282,1.915111645,3.518730707
17.60525179,2.917732544,0.978996978,1.89214846,3.612730834
17.61518579,3.053157567,1.007388718,1.779622303,3.674732466
17.62511979,3.195290515,1.075987667,1.559491006,3.714787092
17.63505379,3.197290263,1.122888769,1.227204266,3.604105232
17.64498779,3.114688987,1.126094797,0.879444623,3.426776885
17.65492179,3.040790706,1.177265536,0.643251024,3.323572496
17.66485579,2.949917373,1.206039099,0.485062791,3.223635948
17.67478979,2.825797357,1.149713455,0.387469254,3.075240504
17.68472379,2.71950784,1.021226154,0.340012082,2.924762207
17.69465779,2.629712734,0.892186583,0.35068325,2.798993517
17.70459179,2.519337768,0.7604111,0.41790635,2.664570049
17.71452579,2.381086786,0.59327458,0.475060581,2.499446251
17.72445979,2.249833751,0.442492576,0.556168478,2.359422591
17.73439379,2.107865109,0.325494322,0.601896007,2.216149967
17.74432879,1.91857729,0.163481718,0.622480545,2.023646985
17.75426279,1.70268347,-0.089675677,0.642178645,1.821967656
17.76419679,1.558799865,-0.344334051,0.671599495,1.731897468
17.77413079,1.440469762,-0.513230875,0.69206592,1.678485718
17.78406479,1.293152087,-0.73935703,0.685187255,1.639625785
17.79399879,1.123730768,-1.034744478,0.638275117,1.655554922
17.80393279,0.89408722,-1.334847413,0.576481669,1.706909689
17.81386679,0.6451502,-1.586224768,0.547491174,1.797797091
17.82380079,0.349755297,-1.839202507,0.530721396,1.945934179
17.83373479,-0.002533014,-2.107435631,0.50579234,2.16728338
17.84366879,-0.431766005,-2.400485801,0.421167927,2.475103308
17.85360279,-0.873705581,-2.671462731,0.316675881,2.828490442
17.86353679,-1.327174112,-2.881596751,0.190647224,3.178260109
17.87347079,-1.582072368,-2.924848605,0.109135978,3.327101292
17.88340479,-1.584492531,-2.723374896,0.074388278,3.151653696
17.89333979,-1.515404754,-2.282383739,0.118739408,2.742230141
17.90327379,-1.430008509,-1.855721038,0.164272883,2.348533688
17.91320779,-1.40655942,-1.550753219,0.195672394,2.102744072
17.92314179,-1.623894578,-1.310066913,0.185840886,2.094718538
17.93307579,-2.020818195,-1.273026994,0.102692346,2.390575166
17.94300979,-2.404236497,-1.395711958,-0.075275848,2.781012667
17.95294379,-2.589142413,-1.571702624,-0.255046155,3.039565119
17.96287779,-2.633307602,-1.745253247,-0.410755169,3.185739731
17.97281179,-2.649013224,-1.834751314,-0.473999859,3.257032286
17.98274579,-2.424267889,-1.72678774,-0.543648347,3.025627905
17.99267979,-1.827895162,-1.243723235,-0.614818354,2.294787531
18.00261379,-1.106943997,-0.420528241,-0.409326109,1.252883425
18.01254779,-0.701239616,0.416753571,-0.155407334,0.830404707
18.02248179,-0.879214827,0.838447748,0.029633689,1.215274246
18.03241579,-1.602671524,0.80126618,0.153357264,1.798360908
18.04234979,-2.487495001,0.46345616,0.17071063,2.536053058
18.05228479,-3.382276286,-0.128395208,0.102653718,3.386268741
18.06221879,-3.745096017,-0.902104923,0.06122963,3.852698604
18.07215279,-3.412669528,-1.493239129,-0.033457731,3.725210843
18.08208679,-2.69468524,-1.653928509,-0.010018546,3.161788802
18.09202079,-1.524018288,-1.454224752,0.169763381,2.113343554
18.10195479,-0.396005604,-0.930972626,0.321320872,1.061497796
18.11188879,0.303858747,-0.312433689,0.294588572,0.526048833
18.12182279,0.600414323,0.14111641,0.11725776,0.627822095
18.13175679,0.675375627,0.487687021,-0.051754839,0.834655277
18.14169079,0.888516578,0.684386479,-0.225233504,1.143930371
18.15162479,1.296783208,0.775716187,-0.383079127,1.558888036
18.16155879,1.796459361,0.760636802,-0.452285603,2.002597525
18.17149279,2.268879887,0.849376486,-0.52349654,2.47856914
18.18142679,2.719426564,0.899290073,-0.541887202,2.915072077
18.19136104,3.191816685,0.924492157,-0.624405448,3.381162768
18.20129504,3.59952666,1.016289642,-0.877168887,3.841726444
18.21123004,3.842317672,1.020387956,-1.220312737,4.158576661
18.22116404,4.0565655,0.925416602,-1.608484241,4.460867752
18.23109804,4.219706326,0.774747303,-1.999519712,4.733311096
18.24103204,4.218116468,0.531358706,-2.253279516,4.8116647
18.25096604,4.184624201,0.30174381,-2.298266239,4.783738782
18.26090004,4.222673787,0.119886924,-2.234189526,4.778802112
18.27083404,4.211886844,-0.073128787,-2.003868871,4.664850379
18.28076804,4.108765934,-0.270421152,-1.540556552,4.396407577
18.29070204,3.880487711,-0.386524051,-1.176790742,4.073379698
18.30063604,3.545948038,-0.507779809,-0.809877959,3.672531842
18.31057004,3.093919092,-0.554831184,-0.438175138,3.173668294
18.32050404,2.674716414,-0.542263178,-0.203872529,2.736735511
18.33043804,2.491256515,-0.412404705,0.028389397,2.525320301
18.34037204,2.298329973,-0.159974558,0.326721945,2.326942147
18.35030604,2.059443732,0.096681664,0.661916506,2.165361238
18.36024004,1.76358456,0.34541754,0.900445483,2.010061155
18.37017504,1.31550073,0.630031347,1.006543211,1.772176883
18.38010904,0.673302789,0.925711886,0.912255689,1.463724559
18.39004304,-0.217509406,1.062138245,0.665254097,1.272010616
18.39997704,-1.297406521,1.012139581,0.317026677,1.675767325
18.40991104,-2.351308671,0.854656814,-0.159848843,2.506918903
18.41984504,-3.217778907,0.76549233,-0.673801557,3.375513019
18.42977904,-3.918112205,0.705788165,-1.065301881,4.121238683
18.43971304,-4.60511619,0.634824602,-1.449562182,4.869427884
18.44964704,-5.300619687,0.493949682,-1.865654726,5.641030306
18.45958104,-5.901945006,0.342132282,-1.999315059,6.240774797
18.46951504,-5.984861448,0.466126291,-1.787472775,6.263457447
18.47944904,-5.585362133,0.955389429,-1.264991312,5.805966081
18.48938304,-5.326649737,1.384725332,-0.831039033,5.566083681
18.49931704,-5.504430236,1.311501819,-0.533854261,5.683642285
18.50925104,-5.809942576,0.98086604,-0.207497785,5.895810908
18.51918504,-6.04310147,0.665589142,0.28043482,6.086109428
18.52912004,-5.992273963,0.348037678,0.881568332,6.066765217
18.53905404,-5.380841147,0.211996651,1.262618512,5.531057723
18.54898804,-4.431776651,0.354809046,1.513144805,4.696396592
18.55892204,-3.679511307,0.610939896,1.661396865,4.08317163
18.56885604,-3.23675663,0.869098267,1.677234049,3.747671188
18.57879004,-2.990378351,0.963957354,1.498117461,3.480794793
18.58872404,-2.795253257,0.773594817,0.992367806,3.065401046
18.59865804,-2.683931626,0.360680527,0.421730465,2.740699911
18.60859204,-2.469201987,-0.139132742,-0.112651324,2.475683076
18.61852604,-2.133552513,-0.577283322,-0.494396117,2.264890699
18.62846004,-1.668025854,-0.939499621,-0.803584017,2.076226639
18.63839404,-1.093448623,-1.14102537,-1.104496937,1.92807735
18.64832804,-0.349851776,-1.05132265,-1.368744307,1.761004417
18.65826204,0.320749599,-0.738449835,-1.544355488,1.741614865
18.66819604,0.715001038,-0.370744463,-1.345364799,1.568019255
18.67813004,0.823941683,-0.017385819,-0.921435233,1.236213999
18.68806404,0.900805671,0.338185412,-0.390743694,1.038508962
18.69799804,1.194262222,0.664415899,0.053589731,1.367692436
18.70793304,1.565774424,1.040036062,0.560716406,1.961562501
18.71786704,1.843179199,1.380565915,1.170706129,2.583374662
18.72780104,2.112912426,1.621640769,1.689431341,3.154091939
18.73773504,2.343452936,1.801458438,2.084713644,3.617050614
18.74766904,2.501946394,1.978486985,2.317010658,3.942421197
18.75760304,2.681814934,2.128464265,2.323499898,4.137770323
18.76753704,2.8999535,2.204800543,2.133575901,4.221732093
18.77747104,3.114856217,2.148326088,1.707333761,4.151219435
18.78740504,3.462138727,2.016070256,1.134113084,4.1637911
18.79733904,3.689758553,1.871852775,0.630672494,4.185199969
18.80727304,3.846058136,1.715537989,0.275865769,4.220347817
18.81720704,3.978456055,1.525986753,-0.042618601,4.261286718
18.82714104,3.971438811,1.30426092,-0.260114558,4.188207536
18.83707504,3.857700527,1.01887762,-0.398515813,4.009835385
18.84700904,3.72265031,0.709733282,-0.442179312,3.815412063
18.85694304,3.536235813,0.43737787,-0.38913571,3.58436741
18.86687704,3.3191515,0.223870299,-0.276233011,3.338141589
18.87681204,2.992317288,0.051446142,-0.168868776,2.997519995
18.88674604,2.542505021,-0.117160952,-0.088798156,2.546751575
18.89668004,2.11479406,-0.264652874,-0.011168182,2.131318791
18.90661404,1.700998887,-0.41795035,0.004580115,1.751599466
18.91654804,1.367552059,-0.545641115,0.021080382,1.472537688
18.92648204,1.01492461,-0.627308883,0.066433131,1.194990276
18.93641604,0.608640186,-0.760608151,0.184610631,0.991488134
18.94635004,0.109231836,-1.008079567,0.266405577,1.048393027
18.95628404,-0.466351701,-1.410952433,0.275837721,1.511408987
18.96621804,-0.895855418,-1.953152607,0.179500165,2.156289022
18.97615204,-1.215271268,-2.445914866,0.025193313,2.731303441
18.98608604,-1.563078273,-2.770882646,-0.031286112,3.181506428
18.99602004,-1.843707202,-2.944584128,-0.052946542,3.474569796
19.00595404,-1.99948229,-2.997624221,-0.229970992,3.610618652
19.01588804,-2.105451379,-2.866055437,-0.411355714,3.580001788
19.02582204,-2.229919304,-2.506381215,-0.474454772,3.388154989
19.03575604,-2.282824911,-2.090614069,-0.441688145,3.126826695
19.04569004,-2.231289892,-1.749984521,-0.301241534,2.85163933
19.05562404,-2.269993197,-1.417778472,-0.056806851,2.676974398
19.06555904,-2.597588131,-1.376509994,0.120425782,2.942234904
19.07549304,-3.190811548,-1.612239031,0.2051519,3.580877034
19.08542704,-3.823761533,-2.150315895,0.083509952,4.387708356
19.09536104,-3.969336153,-2.713302483,-0.165255178,4.81091978
19.10529504,-3.533979957,-2.837447349,-0.173492736,4.53544061
19.11522904,-2.425753666,-2.368829852,0.059332867,3.391040564
19.12516304,-1.150968268,-1.505954484,0.491093646,1.95800915
19.13509704,-0.641067674,-0.694299848,0.930484968,1.326205987
19.14503104,-0.714722711,-0.386761156,1.141579978,1.401291402
19.15496504,-1.53063792,-0.548821123,1.238029801,2.043715943
19.16489904,-2.616750627,-1.136829116,1.286302074,3.129590597
19.17483304,-3.236736165,-1.764234186,1.355498024,3.927640278
19.18476704,-3.297562995,-2.305536082,1.389408367,4.256744524
19.19470142,-2.969667513,-2.612955784,1.401667639,4.196562312
19.20463542,-2.240364186,-2.541156361,1.501414121,3.705529881
19.21456942,-1.305994912,-2.108053682,1.666939441,2.988009394
19.22450342,-0.622210404,-1.462849395,1.835640968,2.428302268
19.23443742,-0.266996146,-0.77911108,1.889168719,2.060888029
19.24437242,0.031666181,-0.224485134,1.662869779,1.678252729
19.25430642,0.44407147,0.15314384,1.284586501,1.367777389
19.26424042,1.060861505,0.478636993,0.962404992,1.510213188
19.27417442,1.917599636,0.696044658,0.607437998,2.128531759
19.28410842,2.668399082,0.900023021,0.342712326,2.836872722
19.29404242,3.305979477,1.047395368,0.152076714,3.471262693
19.30397642,3.756984576,1.135797082,-0.036021187,3.92508161
19.31391042,4.176491309,1.28089837,-0.386537207,4.385566246
19.32384442,4.455230418,1.409931217,-0.634684854,4.715910196
19.33377842,4.569569212,1.541908136,-0.915789746,4.90888117
