Time (s),Linear Acceleration x (m/s^2),Linear Acceleration y (m/s^2),Linear Acceleration z (m/s^2),Absolute acceleration (m/s^2)
0.001395292,0.609935929,-2.437487859,0.613990388,2.586571687
0.011329292,0.688996424,-2.208439558,1.159409308,2.587692272
0.021262292,0.731172098,-1.924129221,1.436796541,2.510233096
0.031196292,0.821314236,-2.018497435,1.31377434,2.544580906
0.041129292,0.959035168,-2.203386979,1.000106303,2.602859053
0.051062292,1.069154904,-2.239204098,0.91874756,2.645982668
0.060996292,1.065246332,-1.997614689,1.088116547,2.511814446
0.070929292,0.805360985,-1.646971784,1.301635228,2.248416474
0.080862792,0.488792438,-1.368010481,1.601264538,2.162040435
0.090795792,0.091748076,-0.887643004,2.187344996,2.362372948
0.100729792,-0.353387003,-0.522379137,2.180046209,2.269441299
0.110662792,-0.706640982,-0.09034299,2.254118006,2.3640117
0.120595792,-0.95722604,0.480503132,2.646504183,2.855021776
0.130529792,-1.129413384,1.049244257,3.110736561,3.47176757
0.140462792,-0.898100165,1.660502241,3.767694921,4.214187539
0.150396792,-0.449732452,1.900293632,4.11758792,4.557181744
0.160329792,-0.075543395,1.621216553,4.163266076,4.468426383
0.170263792,-0.004045689,0.74327408,3.571094574,3.647627884
0.180196792,-0.308757545,-0.425901248,2.317214141,2.376174335
0.190130792,-1.064793173,-1.17547044,0.861015369,1.804678011
0.200063792,-2.465843054,-1.387946563,-1.114256524,3.04110921
0.209996792,-3.830284979,-0.096902397,-2.194183169,4.415304392
0.219930792,-4.276992959,1.827454866,-2.420730323,5.243300045
0.229863792,-3.610408621,3.370272537,-1.767665917,5.245801195
0.239797792,-2.312999175,4.169575807,-1.962389892,5.156190618
0.249730792,-0.576365017,3.632005019,-2.055401552,4.212877002
0.259664792,0.745736343,3.299362768,-1.815283594,3.838902434
0.269597792,1.745660213,4.465815048,-2.068098488,5.221864128
0.279530792,2.268051921,5.195859218,-0.770021583,5.721358734
0.289464792,1.512891621,5.0072181,-0.725771902,5.280891877
0.299397792,0.504603309,3.291616377,-1.126014983,3.515291256
0.309331792,0.278904293,1.295735387,-0.886996887,1.594829544
0.319264792,0.110212998,-0.120259684,-0.687245475,0.706339606
0.329198792,-1.016991016,-0.799413782,-0.893121553,1.57194123
0.339131792,-2.207327417,-1.20292838,-0.629546028,2.591458897
0.349065792,-2.799295144,-1.953688651,-0.735245415,3.491924751
0.358998792,-3.245855482,-2.669624074,-0.734417449,4.266361389
0.368931792,-2.473562548,-3.771344753,0.534986757,4.5417798
0.378865792,-0.921386409,-4.353901094,1.856661708,4.822095017
0.388798792,-0.232102009,-4.795225543,2.207535724,5.284058414
0.398732792,0.065154355,-4.930646473,1.402957973,5.126773918
0.408665792,0.4603738,-5.535735644,0.593169769,5.586426723
0.418599792,0.76736607,-5.904609582,-0.349009631,5.96448428
0.428532792,1.073572183,-5.729089032,-1.600778781,6.044626628
0.438465792,1.468386708,-5.949652439,-1.534519887,6.317378804
0.448399792,2.776312956,-5.636059831,-0.496337246,6.302335655
0.458332792,2.837495297,-4.444136496,-0.578058078,5.304326526
0.468266792,0.711356761,-3.397842159,0.612440291,3.52511601
0.478199792,0.411894535,-3.455874605,0.414954602,3.504984124
0.488133792,1.247745534,-3.37417263,-0.62536505,3.651436881
0.498066792,0.937186755,-1.553432121,0.199535649,1.82518077
0.508000792,0.160532674,0.040489045,1.660038557,1.668273992
0.517933792,-1.183171808,-1.044820839,1.8781321,2.453350015
0.527866792,-0.69715329,-1.810388598,1.095309792,2.227831485
0.537800792,0.371067521,-1.675370541,0.208044518,1.728536976
0.547733792,0.330583447,-0.849075354,-0.292719802,0.957026256
0.557667792,-0.491185995,0.825133345,0.681406446,1.177464846
0.567600792,-1.423261991,2.032242485,2.501585037,3.523295603
0.577534792,-2.218391519,3.063489012,3.436498686,5.11035704
0.587467792,-2.35700035,3.918297561,3.188076221,5.57425658
0.597400792,-2.130107625,3.070850657,2.185262364,4.329301774
0.607334792,-1.33437525,1.321600546,1.240967588,2.251041062
0.617267792,-0.741093653,0.117300408,0.650918917,0.993314968
0.627201792,-1.967938608,-0.422275389,0.365284771,2.045612826
0.637134792,-3.265866993,-0.24023344,0.605630185,3.330223302
0.647068792,-4.234724314,-0.420054032,1.065705485,4.386919601
0.657001792,-4.34439206,-0.587044664,1.974412937,4.807979852
0.666935792,-4.130821631,-0.355765066,2.999324591,5.117245756
0.676868792,-4.038357856,-0.514490658,4.079532194,5.763299205
0.686801792,-4.893243588,0.986525268,3.305690625,5.987040623
0.696735792,-4.660443421,3.012045209,2.453809776,6.067399084
0.706668792,-4.193548806,3.351452104,1.478882314,5.568229135
0.716602792,-3.151269168,1.385298944,-0.97019224,3.576426081
0.726535792,-1.396573545,-1.320509455,-2.929340436,3.503597905
0.736469792,0.097743811,-2.38433316,-2.068344948,3.157950173
0.746402792,-0.130613349,-1.37291571,-0.103198678,1.382970485
0.756335792,-0.799667405,-0.226010672,1.68386713,1.877753257
0.766269792,-1.961398935,2.428670842,1.920912668,3.665437671
0.776202792,-2.58643486,4.525292341,1.392490434,5.395085325
0.786136792,-4.13812685,4.620614235,1.812560838,6.462162682
0.796069792,-4.528599233,4.009212409,1.844770226,6.323382983
0.806003792,-5.449313797,8.346474667,0.192980482,9.969749329
0.815936792,-8.145371379,19.26061492,2.165866565,21.02401817
0.825869792,-6.433256934,26.46763917,2.493553301,27.35215761
0.835803792,1.493515118,22.34630874,-0.658272521,22.4058346
0.845736792,8.856995065,12.273943,-4.321163411,15.74066363
0.855670792,14.12923997,4.239892083,-5.363714068,15.69654534
0.865603792,9.521752149,-0.518718195,-7.086537688,11.88073436
0.875537792,1.712055387,-1.735479333,-3.612751892,4.358325183
0.885470792,4.025519709,1.135852631,-0.743700927,4.248300977
0.895403792,3.315075698,2.133345521,-1.496957374,4.216843769
0.905337792,1.601033719,1.815094437,-1.970088044,3.120756909
0.915270792,0.568007592,1.77910424,-1.614516814,2.468705949
0.925204792,0.306096842,1.154550857,-1.901955703,2.245911497
0.935137792,1.085522868,-0.189321148,-2.267336807,2.52091622
0.945071792,2.396278729,-1.883819686,-3.200961145,4.420076991
0.955004792,2.999153268,-3.212255627,-4.15590911,6.048560743
0.964938792,3.172407729,-4.532987276,-5.189346004,7.585608506
0.974871792,3.18610454,-6.13800178,-6.528830259,9.510623141
0.984804792,3.839214554,-7.396212076,-6.539053531,10.5925796
0.994738792,3.562432508,-8.336971187,-6.495632107,11.15299289
1.004671792,0.520057792,-9.272948445,-6.292933699,11.21869188
1.014605792,-1.913266849,-10.1938662,-6.236391124,12.10239945
1.024538792,-3.633114528,-10.93430146,-6.403983434,13.18216497
1.034472792,-1.670519983,-10.07398425,-5.457884645,11.57861392
1.044405792,2.497522683,-8.232493138,-4.248205655,9.594728454
1.054338792,4.861180966,-7.471213142,-2.790399483,9.340044725
1.064272792,4.507041426,-7.224668217,-2.782332664,8.958271503
1.074206167,2.782035918,-6.953905295,-3.369966143,8.212989377
1.084140167,1.584719257,-6.548105605,-2.733056716,7.270393466
1.094073167,0.755971017,-6.072636341,-1.62748126,6.332227062
1.104007167,0.188271135,-5.389771015,-0.219846245,5.3975374
1.113940167,-0.208094658,-4.619739491,1.588285912,4.889575492
1.123873167,-0.611088561,-3.669000937,3.760556932,5.289308608
1.133807167,-1.242798497,-2.524153535,5.683310012,6.341601679
1.143740167,-2.607330762,-0.295602479,7.318463988,7.774668461
1.153674167,-4.42973188,4.30735258,9.205466899,11.08676831
1.163607167,-6.330468146,11.11090842,12.32179778,17.75820412
1.173541167,-7.502056035,15.79718747,13.63432696,22.17491484
1.183474167,-6.502183912,17.07365921,10.82206649,21.23453219
1.193407167,-4.349693438,14.23011029,7.744496799,16.77477578
1.203341167,-2.370635473,8.229954861,6.700306875,10.87410602
1.213274167,-0.889351487,2.420853115,5.465480179,6.043421999
1.223208167,0.112727301,-1.898435971,2.049781793,2.796135186
1.233141167,1.792904254,-2.588882797,-0.44407264,3.180254755
1.243075167,4.4424256,0.51438073,-0.565431601,4.507709579
1.253008167,5.005846928,5.539620534,0.30813774,7.472673417
1.262942167,4.50604126,10.24710042,-2.207107562,11.4095924
1.272875167,5.2488385,11.75818233,-7.018136959,14.66490381
1.282808167,6.22464933,8.402982159,-8.085256155,13.21846192
1.292742167,5.491596767,1.565030658,-9.565757709,11.14049714
1.302675167,2.993283248,-3.585092223,-11.7024303,12.59998038
1.312609167,1.70880989,-3.305300615,-10.03116859,10.69903672
1.322542167,2.56951331,-0.434609506,-5.071591267,5.701957739
1.332475167,4.879359667,1.254997251,2.946335369,5.836442492
1.342409167,3.605869719,2.064191671,8.08127654,9.086815405
1.352342167,-1.715119328,1.619740131,4.320036652,4.922185397
1.362276167,-5.703070092,-0.182589834,-3.858220929,6.887976209
1.372209167,-7.268404806,-1.4004368,-9.055457751,11.69582176
1.382143167,-6.973850148,-1.736066979,-8.814768813,11.3731554
1.392076167,-5.713432528,-1.21215821,-6.341497748,8.621324288
1.402010167,-4.551541661,0.326789188,-5.342916691,7.026384663
1.411943167,-3.705086152,1.895171471,-4.953615505,6.469748439
1.421876167,-1.823023261,2.708629096,-3.296956054,4.6400436
1.431810167,0.600805501,2.239039207,-0.46087286,2.363613253
1.441743167,2.394343301,0.96906022,2.104395372,3.331731897
1.451677167,4.069919372,-0.643083794,3.809744003,5.611768868
1.461610167,5.014754577,-2.605953158,4.0146281,6.932243079
1.471543167,5.142881105,-4.5231201,2.90627551,7.440045621
1.481477167,4.866482929,-5.324699691,1.583176761,7.385223866
1.491410167,3.859975678,-5.72168061,0.968358481,6.969559483
1.501344167,2.365627917,-5.4439519,0.182967564,5.938542318
1.511277167,1.899695754,-4.437010494,-0.790821299,4.890941055
1.521211167,1.25544544,-2.782213966,-0.837169839,3.165076799
1.531144167,0.171710212,-1.488820388,0.05302606,1.49962739
1.541078167,-1.302719886,-1.226842908,1.250680836,2.183214414
1.551011167,-2.761013131,-2.020690725,2.01050663,3.96844068
1.560944167,-3.503277397,-3.267403057,2.644306215,5.471858059
1.570878167,-3.7496624,-4.363419192,2.748298945,6.375934618
1.580811167,-3.567538297,-5.030543813,2.03887732,6.495438498
1.590745167,-2.736220352,-4.8971659,0.82841356,5.670573578
1.600678167,-2.169028155,-4.346678029,-0.694629266,4.907219461
1.610612167,-2.065095651,-3.854905558,-2.450014933,5.012732795
1.620545167,-1.586289673,-3.30094444,-3.978285316,5.407337901
1.630478167,-0.807891076,-2.80780372,-4.079186039,5.017589906
1.640412167,0.150480872,-2.001793694,-2.29625275,3.050016258
1.650345167,1.039790479,-1.251895888,1.362057431,2.122170587
1.660279167,1.835481047,-0.324929774,5.293851535,5.612435666
1.670212167,1.928910197,0.648355059,6.28486688,6.606104036
1.680145167,0.858744603,1.595865365,3.864193275,4.268046183
1.690079167,-0.494204328,2.243138105,0.726813437,2.409183315
1.700012167,-1.943257803,2.955883872,-0.740758023,3.614169725
1.709946167,-3.865781963,4.101997197,0.78391179,5.690796859
1.719879167,-5.836743874,5.021460164,3.193231126,8.335428378
1.729813167,-7.899081393,5.029262103,4.153678397,10.24412067
1.739746167,-10.37787925,4.938811525,4.846339271,12.47314079
1.749679167,-11.61688085,5.092901444,5.160658979,13.69386603
1.759613167,-10.05602043,4.868300536,5.489120471,12.44806573
1.769546167,-6.955413877,4.950401291,4.436053305,9.620957544
1.779480167,-4.890975746,5.347507925,1.936362766,7.501132282
1.789413167,-3.467976294,5.481106278,-0.221269458,6.489864851
1.799347167,-2.049814537,4.659751988,-1.281373895,5.249471143
1.809280167,-1.184499126,3.5423941,-2.313459059,4.393596131
1.819213167,-1.842954665,2.813091942,-2.368690835,4.113473525
1.829147167,-2.733170152,2.510108523,-1.342843626,3.946402524
1.839080167,-2.834717577,3.470896686,-1.066211635,4.606468799
1.849014167,-2.694755992,5.482197368,-1.513907282,6.293497684
1.858947167,-2.033583544,7.865387982,-2.893349655,8.623877455
1.868881167,-1.39660015,9.486530861,-3.529796859,10.2178386
1.878814167,-0.817381618,10.82860602,-3.555528116,11.42666186
1.888747167,0.155104193,11.51855174,-2.931278204,11.88669354
1.898681167,1.584728466,11.08929594,-2.453588167,11.46751689
1.908614167,3.535550812,9.658549513,-2.754185337,10.64768684
1.918548167,5.750719053,8.111389115,-3.443273855,10.52243023
1.928481167,7.602254507,6.777302426,-5.489252619,11.56970164
1.938415167,8.163310052,5.079417765,-6.520983295,11.61737229
1.948348167,7.447367027,3.013836796,-5.305797397,9.627978702
1.958281167,6.302707905,1.0090236,-3.357935497,7.212349572
1.968215167,4.764923225,0.217027595,-1.921901432,5.142499337
1.978148167,3.097360178,-0.170415931,-1.766345615,3.56968605
1.988082167,1.678421034,-1.132441365,-3.051883751,3.662446592
1.998015167,0.245594606,-2.159739268,-3.499818769,4.119893425
2.007949167,0.092721126,-3.937067124,-4.143264214,5.716269158
2.017882167,0.16150609,-5.709168738,-4.63391782,7.354854605
2.027815167,0.75633866,-7.05869617,-4.992718175,8.678967368
2.037749167,0.723220323,-8.010963771,-5.583493947,9.791526584
2.047682167,-1.114483104,-8.268775696,-6.375886978,10.50079325
2.057616167,-2.434044433,-8.916358337,-8.669404693,12.67219776
2.067549167,-1.17541036,-9.460818899,-8.552962071,12.8078821
2.077481667,3.159123148,-10.11697648,-5.572906979,11.97457993
2.087415667,5.219146339,-10.0764658,-3.253617661,11.80511243
2.097348667,5.600906371,-9.278210354,-2.582812217,11.14119646
2.107282667,4.584000432,-8.067226265,-3.172623199,9.806056166
2.117215667,3.309001318,-7.238643063,-3.612812703,8.740701273
2.127149667,2.694434395,-6.435001159,-4.25830672,8.173273074
2.137082667,2.18506736,-5.904945213,-4.376463745,7.667876645
2.147015667,1.796873928,-5.761234685,-4.181651477,7.342124358
2.156949667,1.973078603,-5.892409952,-3.340528336,7.054974399
2.166882667,1.678052074,-5.680294018,-2.695582788,6.507516074
2.176816667,0.649741141,-4.802012406,-1.600364213,5.103200203
2.186749667,0.730486512,-3.919237794,0.017726419,3.986771834
2.196683667,0.122266156,-2.288955717,1.652908462,2.826017281
2.206616667,-0.151348672,-0.872922054,3.51779808,3.627644231
2.216549667,-0.627173447,1.018647532,5.84100474,5.962241667
2.226483667,-1.443590713,4.062322669,8.476136674,9.509537976
2.236416667,-3.206938461,8.890098492,10.78374267,14.3390171
2.246350667,-5.898983392,14.13201857,12.51451383,19.7768807
2.256283667,-6.71827186,15.8168271,11.55683229,20.70911801
2.266216667,-4.584168247,13.76458187,9.769319751,17.49050946
2.276150667,-2.814676245,9.432367517,8.032341192,12.70474181
2.286083667,-1.850795489,6.030673213,6.004695203,8.709238074
2.296017667,-1.794227186,6.235665484,4.147690263,7.701046016
2.305950667,-3.09846998,10.45244177,1.966304603,11.0779244
2.315884667,-4.031361662,16.46497575,0.839372485,16.97209031
2.325817667,0.60213461,19.58974417,-0.758287391,19.61365959
2.335750667,9.906462686,13.1371768,-4.531084592,17.0661696
2.345684667,9.999981884,1.622321092,-6.453882403,12.01183423
2.355617667,5.364603429,-7.824579679,-5.563672471,10.99806658
2.365551667,4.188619311,-12.90706197,-8.605291727,16.06822411
2.375484667,5.569120322,-14.31768404,-11.89032238,19.42655254
2.385418667,8.154403573,-11.84635366,-10.83485552,18.00623467
2.395351667,9.297424305,-9.01560079,-7.449305964,14.94039208
2.405284667,8.106348231,-6.514034464,-3.452434103,10.95740972
2.415218667,5.581118224,-3.989373391,2.457518958,7.287206605
2.425151667,0.117444981,1.211693357,6.369030533,6.484330655
2.435085667,-6.48414876,6.371427891,4.884549948,10.31979199
2.445018667,-10.31162561,7.225276912,-1.44453767,12.67363162
2.454951667,-9.393424476,5.362383242,-7.259084344,13.0263534
2.464885667,-6.95947009,3.584569482,-8.376512983,11.4651355
2.474818667,-5.29495549,1.699568074,-5.705729406,7.967460908
2.484752667,-2.560707111,-1.486216623,-2.539173278,3.900443782
2.494685667,-0.458879983,-5.589360459,-0.442609813,5.625604379
2.504619667,0.630776136,-8.495717829,1.698162549,8.686705706
2.514552667,1.399890085,-9.332585367,2.969483911,9.893163123
2.524485667,1.384152597,-8.741948758,2.823450869,9.290286396
2.534419667,0.377265789,-6.622013826,1.896591906,6.898583728
2.544352667,-1.079961435,-4.350135487,0.699194845,4.53639382
2.554286667,-2.527691685,-2.255365217,-0.246318747,3.396552729
2.564219667,-3.203521349,-0.615759755,-0.743257123,3.345764525
2.574152667,-2.959600362,0.230039989,-0.65451627,3.039826352
2.584086667,-2.167552025,0.574433974,0.334930267,2.267252623
2.594019667,-1.422428471,0.768461546,1.308749535,2.080062799
2.603953667,-0.544443641,0.4018306,1.350957077,1.510950606
2.613886667,0.240188709,-0.63152151,0.955192963,1.170001551
2.623820667,0.794329701,-1.779885428,0.607807579,2.041661545
2.633753667,1.439878901,-2.676592201,0.190649636,3.045282309
2.643686667,1.690163704,-3.283142592,-0.29534279,3.704444086
2.653620667,1.175629192,-3.679102587,-1.175021301,4.037149353
2.663553667,0.517655719,-3.445777048,-2.332766711,4.193226376
2.673487667,0.146309615,-2.683916423,-2.924541042,3.972122125
2.683420667,0.208964303,-1.51770271,-1.976156577,2.500456441
2.693353667,0.719400776,-0.407719331,0.46809651,0.950203595
2.703287667,1.150973823,0.242283474,3.325240498,3.527132885
2.713220667,0.970640137,0.027219374,5.296699129,5.384970273
2.723154667,0.108531887,-0.765464848,5.229080758,5.285924818
2.733087667,-0.970695101,-0.862648496,3.3742235,3.61549383
2.743021667,-2.23413924,0.12751374,0.761964559,2.363943292
2.752954667,-4.028072019,1.816409476,-0.779639668,4.48693053
2.762887667,-5.60365924,3.539478679,0.214073582,6.631344788
2.772821667,-6.556323867,4.687742025,3.017760862,8.606229637
2.782754667,-7.452198581,5.219287841,5.232841687,10.49565917
2.792688667,-7.929074686,5.030747881,5.843803217,11.06022991
2.802621667,-7.720740731,4.672676089,5.41404807,10.5240513
2.812554667,-6.648927391,4.213034652,5.105870569,9.382313717
2.822488667,-5.174618037,3.738136661,4.396268849,7.750968799
2.832421667,-3.928087847,2.889427342,2.779568685,5.612901796
2.842355667,-2.980906739,1.803553203,1.171116604,3.675611955
2.852288667,-1.639208436,0.990617734,0.006136068,1.915297743
2.862222667,-0.75781669,0.426997601,-1.060869691,1.37188104
2.872155667,-0.179976165,0.613383447,-1.618530343,1.740192846
2.882088667,0.519935878,2.64131478,-1.874429058,3.280298976
2.892022667,0.86025757,7.018302435,-2.725278457,7.577846319
2.901955667,0.063485267,11.16773868,-4.241297754,11.94617195
2.911889667,-1.09330215,13.62883058,-4.853268514,14.50843023
2.921822667,-1.031678052,15.15541696,-4.014903504,15.7121123
2.931755667,0.273935329,15.51611415,-3.094931245,15.824141
2.941689667,2.179133605,13.59725795,-2.722429694,14.0372957
2.951622667,3.850575987,10.62289629,-2.56909465,11.58762738
2.961556667,4.903859501,8.762112297,-2.40708643,10.32552735
2.971489667,5.357139459,8.168087811,-2.150576681,10.00207887
2.981423667,6.149423146,6.905800252,-3.590079898,9.919382835
2.991356667,6.715483907,5.263150145,-6.6084822,10.79215041
3.001289667,7.922560887,2.570326073,-12.58814781,15.0942046
3.011223667,5.775621759,1.554743652,-8.584915935,10.46306915
3.021156667,4.101377684,0.300374976,-4.466460873,6.071309312
3.031090667,3.512986114,-0.938403268,-4.232043658,5.579593682
3.041023667,2.343132217,-1.79575828,-3.602195914,4.657341708
3.050956667,0.653319637,-3.51444324,-0.965740755,3.702808805
3.060890667,-0.017451307,-5.580997771,-0.234385639,5.58594462
3.070823667,0.11072463,-7.165752257,-2.300684062,7.52684612
3.080758333,0.221656251,-8.359308136,-3.565864824,9.090795122
3.090691333,0.109223065,-9.044390725,-4.69326472,10.19017502
3.100625333,-0.401525668,-9.340258668,-5.198958242,10.6972343
3.110558333,-1.080675673,-9.549032333,-5.252631004,10.951804
3.120491333,-1.60366789,-9.523557184,-5.290531486,11.01179438
3.130425333,-1.291919787,-9.019024335,-5.33746884,10.55937642
3.140358333,-0.097323981,-8.152816054,-5.691977924,9.943666037
3.150292333,1.108749032,-7.293861244,-6.188013015,9.629186951
3.160225333,2.073888401,-6.887563371,-6.190272964,9.489943185
3.170158333,2.785182012,-6.892597824,-6.054635687,9.587687777
3.180092333,3.13793927,-7.018683089,-6.667532646,10.17666776
3.190025333,2.992759922,-7.217881354,-6.871171287,10.40516305
3.199959333,2.548391121,-7.258133002,-6.301511564,9.944035397
3.209892333,1.99171748,-7.037633915,-5.453867024,9.123590036
3.219826333,1.48755622,-6.631313823,-4.410205103,8.101669925
3.229759333,1.038049178,-6.013745524,-3.128739846,6.857965758
3.239692333,0.505257027,-5.166068823,-1.574615999,5.424294175
3.249626333,0.086073043,-3.912459117,0.341297885,3.928260322
3.259559333,-0.193259559,-2.517340359,2.810772644,3.778199915
3.269493333,-0.431045043,-0.498710192,5.88009747,5.916929773
3.279426333,-0.657355678,2.801002239,8.594490166,9.06327707
3.289359333,-1.269037293,8.275545017,10.51894098,13.44407752
3.299293333,-2.552133631,15.07681869,12.4723402,19.73279296
3.309226333,-3.310230988,18.40027549,12.42889772,22.4500616
3.319160333,-3.202448969,16.29479371,9.901595464,19.33436252
3.329093333,-2.894438699,11.04978513,9.244506419,14.69477546
3.339026333,-1.919974775,5.066315324,8.458932996,10.04526762
3.348960333,-1.542694879,-0.365223522,6.158086381,6.358877541
3.358893333,-2.357564607,-4.223850832,4.525539093,6.62416265
3.368827333,-3.592947958,-6.515254194,2.717258416,7.92094095
3.378760333,-3.270631889,-6.405568614,1.818422087,7.418557886
3.388694333,-0.576316777,-2.822701256,3.379053301,4.440471216
3.398627333,0.843156218,1.213789583,3.559459784,3.854082448
3.408560333,1.659976577,5.70310576,1.690686153,6.175707022
3.418494333,3.152405866,10.28802508,-0.958176797,10.80274158
3.428427333,5.463857576,13.57292184,-3.808349442,15.11891108
3.438361333,7.518662712,14.24775484,-5.678433434,17.08137621
3.448294333,6.683828251,9.942065213,-9.27396703,15.15007212
3.458227333,3.076275119,2.564581769,-13.43636947,14.02057677
3.468161333,1.307838247,-0.969446136,-13.59257784,13.68972019
3.478094333,2.601416888,-0.983353153,-9.214875069,9.625397435
3.488028333,6.421649042,-1.454828185,-3.914891266,7.660318211
3.497961333,9.508364949,-3.681561926,1.51380291,10.30798241
3.507894333,9.057258693,-6.015620141,7.029367121,12.94734038
3.517828333,5.089700679,-6.637323006,9.388902825,12.57420399
3.527761333,0.881416889,-5.012865341,7.190543282,8.809632646
3.537695333,-1.960046621,-3.616342667,1.002823212,4.233836492
3.547628333,-4.728079334,-2.061997211,-5.312402412,7.404605734
3.557562333,-6.951851168,-0.091251063,-8.470938499,10.95871162
3.567495333,-7.587024264,1.412197305,-11.19545799,13.59762913
3.577428333,-6.990274392,2.378618676,-11.59138582,13.74343437
3.587362333,-5.036984521,1.516781774,-6.687335411,8.508366172
3.597295333,-2.822118874,-0.149446646,-0.604942406,2.890094212
3.607229333,-1.66527737,-1.742747422,2.862365259,3.742118674
3.617162333,-0.980973921,-4.077485669,3.794680991,5.655776077
3.627095333,-0.911085369,-6.218584013,3.13440112,7.023199702
3.637029333,-0.337841303,-6.997465882,2.26591301,7.362949632
3.646962333,-0.122594404,-7.067699713,1.225147069,7.174147612
3.656896333,-0.24408734,-5.830749893,0.091429403,5.83657282
3.666829333,-0.107580545,-4.016234331,-1.019567884,4.145024782
3.676762333,-0.15693079,-2.404574466,-1.392142525,2.782924082
3.686696333,0.098030014,-0.707420708,-0.924312648,1.168078684
3.696629333,0.756946917,0.967115436,-0.577128371,1.356966491
3.706563333,0.146245295,1.447671193,0.199799359,1.468693076
3.716496333,-0.97311848,0.74593164,1.314399115,1.797503441
3.726429333,-1.418301213,-0.647576795,2.009882147,2.543729601
3.736363333,-1.455769294,-1.920868814,1.532103817,2.855931257
3.746296333,-1.265462013,-2.704568204,0.128825892,2.988758837
3.756230333,-0.645396076,-3.100910608,-1.120230698,3.359627882
3.766163333,-0.061106291,-3.110218205,-1.852507846,3.62063207
3.776097333,0.43110907,-2.599632318,-1.586491109,3.075857158
3.786030333,0.766707674,-1.8531832,0.138297248,2.010287233
3.795963333,1.181066884,-0.967746935,2.295070589,2.756592484
3.805897333,1.179723413,-0.768927569,4.012195659,4.252141924
3.815830333,0.782018023,-0.798109269,4.188098617,4.334593478
3.825764333,0.224323385,0.246878216,3.205472857,3.222782349
3.835697333,-0.937777908,2.072225161,2.290591768,3.228057492
3.845630333,-2.256683618,3.563997808,2.243434851,4.777834369
3.855564333,-2.778399827,3.912218796,2.582054126,5.449033402
3.865497333,-3.481005353,3.640844255,2.404040323,5.581447396
3.875431333,-4.376219916,3.570609255,2.435003669,6.150592986
3.885364333,-4.794236194,4.337589701,3.860344345,7.530049373
3.895297333,-4.868616285,5.135275632,5.816506076,9.160034022
3.905231333,-4.742338647,5.353222994,6.074321508,9.383184643
3.915164333,-4.825249241,4.861690843,4.81784842,8.374409322
3.925098333,-4.756646491,4.14072506,2.548461287,6.801907438
3.935031333,-3.992232095,3.591349913,0.569503894,5.400004258
3.944964333,-3.468528564,3.273100584,-0.850518301,4.844301726
3.954898333,-2.79758688,2.421378195,-1.630500909,4.043278117
3.964831333,-1.929261615,1.813885233,-2.222330349,3.457019265
3.974765333,-1.478229911,2.740703412,-2.725708812,4.138370138
3.984698333,-1.019521983,5.339278554,-3.189801149,6.302551223
3.994631333,-0.234530066,8.316098966,-4.115805981,9.281829843
4.004565333,0.369828496,9.777367859,-4.767662938,10.88413089
4.014498333,0.855581259,10.64940523,-4.664017532,11.65739725
4.024432333,1.759221368,11.71152622,-3.905528412,12.47027901
4.034365333,2.814449373,12.08532469,-2.763237997,12.71265835
4.044298333,3.727596762,10.8574515,-1.729043888,11.60899752
4.054232333,4.291030954,8.776537963,-1.341262393,9.861011615
4.064165333,4.810051743,7.0189544,-1.279376924,8.604599
4.074099333,5.270640428,5.295955948,-1.551441437,7.631105455
4.084032083,5.682542272,4.217435852,-3.545829047,7.915235655
4.093966083,5.366620134,3.224938238,-6.144650649,8.772546375
4.103899083,4.889829399,2.623517609,-8.574700849,10.2136561
4.113832083,3.626363041,2.467529098,-9.338278216,10.31710467
4.123766083,0.819349279,1.944311471,-7.651435438,7.937011062
4.133699083,-0.533233615,0.403116403,-5.846863065,5.88495103
4.143633083,-0.721840526,-1.440559809,-5.143875132,5.390335581
4.153566083,-0.521286365,-3.389582967,-4.246454414,5.458331911
4.163499083,-0.400947707,-5.361049492,-3.583870155,6.461094025
4.173433083,-0.484345338,-7.244692007,-3.520854127,8.069483656
4.183366083,-0.363671086,-8.954030194,-3.575350177,9.648318105
4.193300083,-0.321482913,-10.20310129,-3.967991293,10.95224096
4.203233083,-0.202938802,-11.34123843,-4.645105882,12.25731952
4.213166083,-0.57886324,-12.0737472,-4.348308817,12.84594269
4.223100083,-0.704533353,-11.89120648,-3.219719598,12.33951997
4.233033083,0.040066218,-10.80241868,-2.629750741,11.11797839
4.242967083,1.017240107,-8.960228242,-3.617110991,9.716170002
4.252900083,1.420823995,-7.132562876,-5.550141429,9.148566221
4.262833083,1.622355883,-6.159481527,-5.835749263,8.638704807
4.272767083,1.566519359,-6.041831455,-6.282070742,8.855626631
4.282700083,1.386058351,-6.299646302,-6.727517477,9.320203469
4.292634083,1.11668078,-6.395662261,-5.248867151,8.348777042
4.302567083,0.797407018,-6.076065148,-3.148627396,6.889722789
4.312500083,0.59741587,-5.475688248,-1.402039522,5.683817584
4.322434083,0.548814106,-4.87126215,-0.1394941,4.904064688
4.332367083,0.716137664,-4.12278054,0.934863948,4.287673394
4.342301083,1.131721573,-3.394440833,1.801188004,4.005908201
4.352234083,1.694790899,-2.628007686,2.40765478,3.946586136
4.362167083,2.427683247,-1.27955848,3.462576976,4.418184601
4.372101083,3.005155435,0.634813492,4.692550775,5.608384806
4.382034083,2.32324876,3.167351934,5.256270311,6.561858019
4.391968083,-0.187909375,6.800218248,5.634780461,8.833404157
4.401901083,-3.453337498,11.0393654,7.083981285,13.5637723
4.411834083,-5.645967354,14.40458535,9.716418822,18.26958733
4.421768083,-5.529117765,15.14856285,12.62226281,20.47856485
4.431701083,-3.919489224,11.16107753,12.56859004,17.25982338
4.441635083,-3.105884542,5.064862876,8.804395267,10.62152205
4.451568083,-3.55213293,-0.290817118,3.244760883,4.819823248
4.461501083,-5.18003139,-4.178170044,-0.509271433,6.674517774
4.471435083,-6.312694364,-6.223430185,-0.617803942,8.886105734
4.481368083,-2.49978731,-4.413378387,2.372429398,5.599577362
4.491302083,1.887167217,-0.214793959,4.141339018,4.556119556
4.501235083,3.17683641,4.686339278,2.195051188,6.072257827
4.511168083,4.820578485,10.1329885,-1.191028712,11.28423601
4.521102083,7.007524263,14.67411276,-3.431005812,16.61946998
4.531035083,7.865949315,16.36322367,-6.340637623,19.23101487
4.540969083,6.694725122,10.7184819,-12.18305037,17.55368665
4.550902083,1.938099974,0.266150054,-15.49827547,15.62125507
4.560835083,0.915358222,-3.599889772,-12.90139017,13.42545922
4.570769083,3.007900118,-3.006711963,-8.525167331,9.527132726
4.580702083,7.332953973,-3.865216538,-4.130020562,9.2611653
4.590636083,10.20319719,-6.776646953,0.396217858,12.25500573
4.600569083,9.82621199,-9.19201421,5.581679556,14.56717934
4.610503083,6.197222965,-7.678563595,8.856858825,13.25933104
4.620436083,1.747450046,-4.574017189,6.933024303,8.487758296
4.630369083,-1.937671081,-2.359892968,0.981434682,3.207316335
4.640303083,-5.676699734,-0.49990244,-5.349705309,7.816275917
4.650236083,-7.804877486,1.662323649,-9.679935704,12.545142
4.660170083,-7.022696618,4.119564571,-11.31043998,13.93610894
4.670103083,-6.504135128,6.799078041,-11.8117592,15.10128774
4.680036083,-5.818091256,6.823480226,-7.65231369,11.7884678
4.689970083,-4.353162883,3.321692115,-2.708886373,6.109151412
4.699903083,-1.757982635,-0.435600024,0.179279725,1.819997678
4.709836083,0.238641535,-3.077925203,1.850622119,3.59935766
4.719770083,0.781735311,-4.559071705,2.882353381,5.450156504
4.729703083,0.965134107,-5.365406252,3.47565515,6.465233702
4.739637083,0.990552245,-5.684936122,2.960215489,6.485566144
4.749570083,0.597087878,-5.249986893,2.241280444,5.739530847
4.759504083,0.152104224,-4.443510259,1.832118605,4.808802106
4.769437083,0.133483711,-3.08244627,1.503275875,3.432073901
4.779370083,0.477817214,-1.244866365,0.580362466,1.454242809
4.789304083,0.782417388,-0.104447644,-0.453869065,0.910540174
4.799237083,-0.141730386,0.045270898,-0.867057881,0.879730826
4.809170083,-1.986269921,-0.526747007,-1.436892436,2.507466945
4.819104083,-2.617443814,-0.998155965,-2.630312659,3.842638694
4.829037083,-2.090933619,-1.818296957,-2.480475419,3.719000609
4.838971083,-0.962084784,-2.517751418,-1.027096247,2.884372728
4.848904083,-0.206448228,-2.749183629,0.444214143,2.792482355
4.858838083,-0.051411356,-2.561441229,1.779865547,3.119542541
4.868771083,-0.174963603,-2.24900754,2.700839435,3.5189744
4.878704083,-0.066455369,-1.732008426,3.106816295,3.557608326
4.888638083,-0.047015415,-1.352431744,3.15684975,3.434673553
4.898571083,-0.088787302,-1.336558893,2.512893552,2.84761424
4.908505083,0.105116565,-1.158234603,1.617752663,1.992405723
4.918438083,0.456235141,-0.730872136,1.039281771,1.349974512
4.928371083,0.97432973,-0.368243608,0.987733887,1.435458119
4.938305083,1.434588925,-0.113978021,1.73555754,2.254594497
4.948238083,1.531121485,0.095485032,3.237293404,3.582390121
4.958171083,1.183450209,0.856151655,4.645737674,4.8699516
4.968105083,-0.060273391,2.19049036,4.940586154,5.404745364
4.978038083,-2.055988612,3.246026221,3.572030128,5.246253391
4.987972083,-4.746593081,3.642897797,1.03552435,6.072327471
4.997905083,-7.179565719,3.701287508,-0.07240344,8.07780511
5.007839083,-8.500371628,4.05806882,1.441063547,9.528950861
5.017772083,-7.7082464,5.129979808,4.237389475,10.18279063
5.027705083,-5.456212342,5.303455002,6.253321152,9.848904178
5.037639083,-3.561048765,4.532950439,5.3898979,7.891749322
5.047572083,-2.484979529,3.957461042,2.241296232,5.182666298
5.057505083,-1.221484812,3.832348169,0.31767221,4.034827539
5.067439083,-0.792306711,3.386034876,-0.554531368,3.521432541
5.077371792,-1.013505783,1.951594763,-1.608894131,2.724785572
5.087305792,-1.31799179,1.238501086,-2.476101409,3.066278769
5.097238792,-1.432053572,2.035904596,-2.763022234,3.718867681
5.107171792,-0.56545678,4.233912721,-2.957114711,5.195217581
5.117105792,0.633017812,6.862975245,-3.25216989,7.620875918
5.127038792,1.077332235,8.54445788,-3.493035414,9.293530094
5.136972792,1.410794558,10.10085571,-3.344086366,10.73315149
5.146905792,1.730339631,11.25685843,-2.66082226,11.69576471
5.156838792,1.88686667,10.90619389,-1.688644305,11.19628736
5.166772792,2.673929087,8.595312284,-0.980321226,9.054850619
5.176705792,3.492962032,6.093356534,-0.582699744,7.047646174
5.186639792,4.144790629,5.245163525,-1.114984503,6.777478897
5.196572792,4.803878545,5.232801926,-3.036757881,7.725371415
5.206505792,5.397702178,4.440902985,-4.5760719,8.35447438
5.216439792,5.366568679,3.436809173,-5.615177085,8.493640584
5.226372792,4.551299002,2.342578778,-5.394977961,7.436920406
5.236306792,2.545845243,1.131032186,-4.804449233,5.553673941
5.246239792,1.737161285,-0.257514301,-3.818816835,4.20326123
5.256172792,1.672455704,-1.555413158,-2.820146608,3.62900056
5.266106792,1.345033262,-2.325490875,-2.420251436,3.61588707
5.276039792,0.874433778,-3.258153346,-2.944897246,4.478014901
5.285973792,0.34206884,-4.772422571,-3.795103744,6.107032071
5.295906792,-0.478821765,-6.330596784,-4.203020126,7.613875761
5.305839792,-0.921014818,-7.795291561,-4.72545832,9.162139223
5.315773792,-1.223082271,-9.563132309,-5.634239008,11.1666503
5.325706792,-2.027061852,-10.05313892,-6.176482891,11.97178027
5.335640792,-2.247062463,-9.850946882,-6.230098935,11.87032337
5.345573792,-1.927128258,-9.439971821,-5.984065057,11.3417779
5.355506792,-0.760562104,-8.706764892,-5.542294466,10.34906941
5.365440792,0.391515234,-7.839507036,-5.129930107,9.376957804
5.375373792,0.97155318,-7.039757624,-4.964547459,8.66884274
5.385307792,1.212968634,-6.351969527,-4.689456428,7.988104367
5.395240792,1.242786949,-5.863225914,-4.335808055,7.397375819
5.405173792,1.207089551,-5.346917356,-3.772763287,6.654346942
5.415107792,1.06271975,-5.021285332,-3.121246054,6.00706722
5.425040792,0.683786847,-4.765714645,-2.153428368,5.274168586
5.434974792,0.408670088,-4.820183798,-1.043539714,4.948753199
5.444907792,0.49511854,-4.777473396,0.387858678,4.818695754
5.454840792,0.88955212,-4.453759843,1.992791905,4.959687419
5.464774792,0.917942545,-3.961800846,3.218998051,5.186562726
5.474707792,0.641538375,-2.790124079,4.235333594,5.11218295
5.484641792,0.279230787,-0.317437152,5.236758152,5.253795973
5.494574792,-1.120572687,3.603083521,7.595271177,8.480922017
5.504507792,-3.160732009,8.849323518,10.22206381,13.8849322
5.514441792,-3.55996206,12.23743883,10.31432703,16.3955354
5.524374792,-2.236671377,13.42309045,8.089523453,15.83105952
5.534308792,-1.209694778,11.94950556,7.954237593,14.40569125
5.544241792,-0.708919934,7.003492607,8.208465174,10.81343501
5.554174792,0.017910606,2.049107609,7.605885043,7.877096551
5.564108792,-0.191466784,0.597194846,6.08396766,6.116205008
5.574041792,-0.636106312,2.599249325,4.735000391,5.438837835
5.583974792,0.397797921,6.897914112,3.542692893,7.764672255
5.593908792,4.296428812,11.94825426,2.225492377,12.89080667
5.603841792,10.81687065,14.37022478,-2.294049811,18.13203561
5.613775792,13.68744307,12.48809727,-8.761907644,20.49560189
5.623708792,6.482899795,5.669068533,-9.846954403,13.08162218
5.633641792,-0.701711779,-1.908294961,-6.040753228,6.373749967
5.643575792,-2.932522784,-6.211668511,-8.234064285,10.72307466
5.653508792,-3.226916058,-6.252356946,-11.30822856,13.3184454
5.663442792,-1.073987043,-4.808991058,-10.15964362,11.29151015
5.673375792,3.074678536,-4.153073795,-7.182053125,8.847799565
5.683308792,4.481593759,-2.889060137,-3.602298825,6.434897662
5.693242792,1.802943923,-0.188474472,0.870373837,2.010890358
5.703175792,-3.460211192,2.924924034,8.416507938,9.558548424
5.713109792,-5.028752811,3.456383312,8.451746768,10.42434477
5.723042792,-4.803429771,2.877659821,0.585177356,5.629946372
5.732975792,-4.038228632,1.959411321,-4.890850908,6.638298412
5.742909792,-2.576020969,1.295555878,-7.375620521,7.91922516
5.752842792,-1.473558571,0.598273657,-7.489016744,7.656022337
5.762776792,-0.77517415,-0.966359391,-5.239017516,5.383497931
5.772709792,0.139903917,-3.147809955,-2.139863705,3.808844614
5.782642792,0.463086543,-5.342015635,0.905451576,5.437961268
5.792576792,1.241736058,-5.969707804,3.464763834,7.013123992
5.802509792,1.143200096,-5.8198156,4.68480643,7.558079873
5.812443792,0.666861716,-5.4256086,4.376437433,7.002509395
5.822376792,-0.187117406,-4.886135128,3.477847856,6.000396247
5.832309792,-1.569643819,-4.20586889,2.776323481,5.278360248
5.842243792,-2.64176443,-3.492250718,2.449794493,5.017591797
5.852176792,-2.941550007,-2.844883254,2.028964389,4.567578534
5.862109792,-2.538629487,-2.307856842,1.162104802,3.622337704
5.872043792,-2.224512384,-1.955229977,0.646237709,3.031336798
5.881976792,-2.070066661,-1.654859093,0.314716954,2.668853941
5.891910792,-1.9145661,-1.660057268,0.334879359,2.556070748
5.901843792,-1.384228903,-2.136712348,0.188386727,2.552864836
5.911776792,-0.599954074,-2.68331533,-0.390374735,2.777142143
5.921710792,0.024367979,-2.895386825,-0.912807666,3.03596385
5.931643792,0.317833666,-2.937416611,-1.148408357,3.169901629
5.941577792,0.212454195,-3.136535938,-0.763190281,3.235035376
5.951510792,-0.03803241,-3.27685625,-0.300467326,3.290822688
5.961443792,-0.02957814,-2.962140977,-0.560553854,3.014858978
5.971377792,-0.113076965,-2.450939963,-1.321309354,2.7867098
5.981310792,0.006837661,-1.625142959,-1.788802432,2.416805853
5.991244792,0.337827197,-0.374727586,-0.699362002,0.862354445
6.001177792,0.522623185,0.80724145,1.641100595,1.902100133
6.011110792,0.848287588,1.422634585,3.558219005,3.924844389
6.021044792,1.154295041,1.304180521,3.922430373,4.29170641
6.030977792,0.829697682,0.689250485,2.996917877,3.185118716
6.040911792,0.065607514,0.665482138,1.435056702,1.583211471
6.050844792,-1.684568358,1.834279736,0.106504402,2.492728603
6.060777792,-3.463919789,4.245672641,-0.143241288,5.481331457
6.070711792,-4.823463501,6.705286363,1.951603241,8.487368295
6.080645042,-5.551164107,7.985756425,4.71396094,10.80782848
6.090578042,-5.58748935,7.721938825,6.733967541,11.6702483
6.100512042,-4.971569381,6.831476294,7.017643454,10.98330051
6.110445042,-4.283520791,5.750464114,5.847653024,9.252644691
6.120379042,-4.092228546,5.091467122,3.605855101,7.461337879
6.130312042,-3.546641226,4.595106926,0.714161378,5.848392781
6.140245042,-2.59910256,4.115214243,-1.619463558,5.129618368
6.150179042,-2.115490317,3.376130862,-2.023336737,4.468495321
6.160112042,-2.075879817,2.959540721,-2.134046602,4.197893899
6.170046042,-2.021344737,3.423801457,-2.466042151,4.678633866
6.179979042,-1.586450763,4.643103211,-2.831712985,5.665141824
6.189912042,-0.867717667,6.62738157,-3.223774642,7.420771076
6.199846042,-0.178923995,8.195256314,-3.054094291,8.747670078
6.209779042,0.800217555,9.55526722,-2.961503046,10.03563551
6.219713042,1.699671569,10.64030696,-3.191631328,11.23795027
6.229646042,1.908284729,10.45388486,-3.193784857,11.09619399
6.239579042,2.726556366,8.955122454,-2.918533028,9.805414974
6.249513042,4.036761273,6.923663496,-3.340013196,8.682640493
6.259446042,5.240989197,5.266011187,-4.839485749,8.866761749
6.269379042,7.640846715,4.274062627,-7.433470534,11.48506134
6.279313042,8.453690967,2.951331815,-9.149613125,12.80197917
6.289246042,6.382121864,1.697890508,-8.188275908,10.51960902
6.299180042,3.439096019,0.194250936,-5.427131799,6.42797592
6.309113042,2.265494934,-0.954643909,-3.073797653,3.935993433
6.319046042,1.626834851,-1.808511642,-1.623157829,2.92437127
6.328980042,1.064115042,-2.299792362,-1.01975938,2.731537099
6.338913042,-0.005831428,-2.866036141,-1.633830167,3.299029885
6.348847042,-0.499558039,-4.031855752,-2.67703425,4.865380912
6.358780042,-1.014313576,-5.237193185,-3.4386528,6.346759612
6.368713042,-1.453864125,-6.321592072,-4.618330312,7.96273961
6.378647042,-0.768428948,-7.543186519,-5.925554894,9.623011312
6.388580042,-0.778817111,-8.28906378,-7.06205715,10.91731586
6.398514042,-1.509262693,-9.012453234,-7.622377115,11.89969832
6.408447042,-2.051272687,-9.373370866,-6.839128545,11.78310147
6.418380042,-2.303632082,-9.171277644,-5.342730165,10.86111504
6.428314042,-1.7529609,-8.666386945,-4.367597027,9.861796915
6.438247042,-1.097030773,-8.023661585,-4.051491287,9.05523072
6.448180042,-0.559648705,-7.423123301,-4.201086452,8.547812211
6.458114042,-0.281872193,-7.203981938,-4.430286196,8.461929063
6.468047042,-0.320470102,-7.18357574,-4.244225455,8.349844981
6.477981042,-0.482329364,-7.143593649,-3.58971971,8.009348252
6.487914042,-0.393198355,-7.196399269,-2.785251009,7.726602783
6.497847042,0.025707576,-7.242492285,-2.039404154,7.524195949
6.507781042,0.751745819,-7.06931296,-0.878672206,7.163265481
6.517714042,1.748484418,-6.614075646,0.29273325,6.847546069
6.527648042,1.777866092,-5.666339053,1.250865608,6.069009052
6.537581042,0.800431344,-3.697777424,3.003036696,4.830370339
6.547514042,-0.635174119,0.665769237,4.451613915,4.545719007
6.557448042,-1.743461367,9.164382607,7.621388351,12.04620797
6.567381042,-3.931703473,19.22150991,13.99576675,24.09992163
6.577314042,-1.976241361,26.65324616,12.37129212,29.45080525
6.587248042,4.825188138,26.40821041,7.088366697,27.76546344
6.597181042,5.492128279,14.70320734,5.2966658,16.56509727
6.607115042,3.027391226,1.968227752,4.135145647,5.48984951
6.617048042,2.109295923,-6.708229852,4.34911047,8.268266984
6.626981042,-0.016893629,-11.27845337,4.588099038,12.17597834
6.636915042,-1.8986817,-9.952148151,4.810179797,11.21552828
6.646848042,0.262768755,-4.079309415,6.809710034,7.942415468
6.656782042,1.718388507,2.767254449,3.690898175,4.922731517
6.666715042,3.325040231,8.514968618,-0.737477735,9.170848189
6.676648042,4.570511783,13.02313037,-3.233567559,14.17559388
6.686582042,4.291559835,15.2487432,-4.221417221,16.39396286
6.696515042,0.772882918,11.0533379,-8.181144059,13.77333456
6.706448042,-2.947567377,2.475568435,-15.47879371,15.95022405
6.716382042,-2.785273229,-2.819753675,-17.26047307,17.70967781
6.726315042,-0.18717142,-3.52911215,-12.9855433,13.45786017
6.736249042,4.494450909,-2.835897253,-6.051090521,8.053452594
6.746182042,6.940912782,-2.75158742,0.980152972,7.530484939
6.756115042,4.77058216,-3.165769093,7.484015036,9.42289919
6.766049042,0.38037585,-3.011426573,10.75904286,11.17901512
6.775982042,-2.441361347,-2.746460581,8.637872413,9.38701927
6.785916042,-3.418800041,-2.089663897,2.286792247,4.613491921
6.795849042,-4.801593745,-0.911121329,-3.769474813,6.172064885
6.805782042,-5.534728754,0.012598996,-7.596874484,9.399249068
6.815716042,-5.090005903,0.849385257,-9.28299747,10.62090662
6.825649042,-4.639190839,1.789534503,-8.578144274,9.915093775
6.835582042,-4.112035404,1.91585775,-6.216583096,7.695794402
6.845516042,-3.061778117,0.562129093,-3.470377161,4.661972972
6.855449042,-0.892314198,-1.046430577,-1.01218899,1.707562044
6.865383042,1.236115276,-3.068505338,0.816625939,3.407430691
6.875316042,2.774305606,-4.878754188,1.555326619,5.823920923
6.885249042,2.997259355,-6.095399551,1.576813967,6.973076912
6.895183042,2.565495104,-6.294751598,1.753172862,7.019920077
6.905116042,1.800604744,-5.858220697,1.909961418,6.419414288
6.915050042,0.914276194,-4.917948659,2.023499143,5.395986356
6.924983042,0.19688613,-3.322503124,2.187933372,3.98306962
6.934916042,-0.318538913,-1.843121896,2.01298351,2.747847881
6.944850042,-1.155366105,-0.8698739,1.469884765,2.062065145
6.954783042,-2.164099244,-0.16253213,1.017368746,2.396827361
6.964716042,-2.85738577,0.022771981,0.47385134,2.89649911
6.974650042,-3.519853669,-0.404957691,-0.129968401,3.545455171
6.984583042,-3.828149868,-1.358831522,-0.60188899,4.10651006
6.994517042,-3.820640289,-2.117406596,-1.426569761,4.595193597
7.004450042,-2.96781687,-2.566260504,-2.070845218,4.43644338
7.014383042,-1.807766268,-2.45430562,-2.120457673,3.713216355
7.024317042,-0.545523147,-1.946883661,-0.857311742,2.196118147
7.034250042,0.343982487,-1.58286759,0.941988854,1.873802753
7.044183042,1.064562939,-1.575586052,2.098445245,2.831825931
7.054117042,1.555107202,-1.973407216,2.338638193,3.432480597
7.064050042,1.659586129,-2.130309062,2.021355408,3.373176619
7.073984042,1.465928978,-1.688029763,1.562336115,2.727505524
7.083916958,0.906891892,-0.504627575,1.315440942,1.675555659
7.093849958,-0.351774633,1.303758937,1.271408046,1.854726712
7.103783958,-1.671891156,3.319349136,1.44417602,3.987347878
7.113716958,-3.209274132,4.712336583,1.60247535,5.922287039
7.123650958,-4.895581597,5.413830553,1.960017092,7.557641658
7.133583958,-5.908220238,5.889131418,2.543020453,8.72100271
7.143516958,-5.478826448,6.312715414,3.40016058,9.023802254
7.153450958,-4.172764001,6.539113757,4.545113524,8.99055199
7.163383958,-3.084375851,6.442934661,5.846494106,9.230724499
7.173316958,-2.379550722,6.15384715,6.288554134,9.1147139
7.183250958,-2.396784075,5.873099522,4.787270698,7.947064404
7.193183958,-2.934496511,5.232053483,2.111611128,6.359603366
7.203117958,-3.115173721,4.436846187,-0.038576274,5.421383544
7.213050958,-2.704717893,3.633819995,-1.093143983,4.659947468
7.222983958,-2.437357466,2.551154222,-1.241581399,3.74040421
7.232917958,-2.132744281,2.505157101,-1.490961639,3.612115291
7.242850958,-1.595320259,3.547493457,-2.063503454,4.403158305
7.252784958,-1.194535726,4.967979775,-2.609422896,5.737318755
7.262717958,-0.666047564,6.358948764,-2.843608561,6.997568033
7.272650958,0.297570067,7.741843332,-2.761480324,8.224989951
7.282584958,1.15012795,9.833384185,-2.846196538,10.30141124
7.292517958,1.450959959,11.40696815,-3.026035842,11.89037847
7.302450958,1.781931076,11.29838769,-3.165266232,11.86792961
7.312384958,4.039199855,9.823056833,-3.496583505,11.18184588
7.322317958,6.596214157,7.64114083,-4.658788367,11.11761591
7.332251958,7.593072624,6.118305434,-6.697706033,11.82994841
7.342184958,6.372494423,4.51204255,-8.676524262,11.67258696
7.352117958,4.073725324,2.53157599,-8.758219221,9.985515456
7.362051958,2.087234671,0.844212225,-7.105906005,7.454068889
7.371984958,1.416880779,-0.812075343,-5.080069145,5.336114693
7.381917958,0.678014037,-1.941590762,-3.001908183,3.638808934
7.391851958,0.66917714,-2.739063853,-1.442030384,3.166973392
7.401784958,0.263079681,-3.282766031,-1.385029972,3.572684111
7.411718958,-0.274722218,-4.008342928,-2.058731541,4.514494533
7.421651958,-0.447184528,-5.241910719,-2.791439118,5.955647264
7.431584958,-0.373582993,-6.87677058,-3.914923718,7.921878918
7.441518958,-0.032493562,-8.477964513,-5.899557003,10.32868389
7.451451958,-0.550741349,-10.17420903,-7.515398796,12.66092668
7.461384958,-1.81623289,-10.3895269,-6.660699005,12.47420869
7.471318958,-2.596043005,-9.587109987,-4.397241826,10.86222136
7.481251958,-3.122975953,-8.796674019,-3.20621136,9.869865444
7.491185958,-2.875151658,-8.199704876,-3.361494697,9.316721725
7.501118958,-1.854159685,-8.012775239,-3.887026067,9.096782223
7.511051958,-0.459204065,-7.682737337,-4.444504285,8.887572206
7.520985958,0.38443601,-7.334605812,-4.433653607,8.579132693
7.530918958,0.609627196,-7.22702406,-4.151963993,8.357052536
7.540852958,0.790815744,-7.165933521,-4.092496641,8.290025423
7.550785958,0.813164972,-7.087870268,-4.245549265,8.302037748
7.560718958,0.841640912,-6.961135962,-4.241432825,8.19484751
7.570652958,0.935635781,-6.918968182,-3.721275045,7.911726927
7.580585958,0.942048714,-6.774991606,-2.95701063,7.451971478
7.590518958,0.851311037,-6.263558457,-2.089486726,6.657540822
7.600452958,0.805696469,-5.372083188,-0.335412954,5.442511041
7.610385958,0.478662136,-3.746277155,2.714369892,4.650969132
7.620319958,0.35175943,0.091407183,5.536974084,5.548889257
7.630252958,-0.156415942,8.382125725,8.874479994,12.20823053
7.640185958,-3.671591254,19.76924901,17.04572355,26.36020637
7.650119958,-3.238284507,27.43878217,14.23591189,31.08109459
7.660052958,2.835773876,26.78179135,6.454119215,27.69407186
7.669985958,4.504102031,15.74093024,4.456738999,16.96839245
7.679919958,2.508962469,3.338615711,4.619183129,6.227206461
7.689852958,2.214509991,-6.120311029,4.433029125,7.874897384
7.699786958,-1.004264551,-10.58358663,3.139194083,11.08491735
7.709719958,-5.255051751,-9.386507805,2.610290038,11.06958499
7.719652958,-3.150249121,-4.186167866,4.112001198,6.660076935
7.729586958,0.72873337,3.059190139,2.471257283,3.999601129
7.739519958,3.915934702,9.504189452,0.606795389,10.29720168
7.749452958,6.462196559,14.3689992,-1.102438717,15.79378022
7.759386958,7.202189766,16.21036225,-2.821798446,17.96134539
7.769319958,4.797479937,11.56174746,-5.830820644,13.80899299
7.779253958,-0.192654207,2.224178508,-10.24508664,10.48550838
7.789186958,-1.745626299,-2.940270052,-12.64661061,13.10073124
7.799119958,-0.230301213,-2.908140771,-12.33643687,12.67667133
7.809053958,4.993361369,-1.867988935,-9.265593817,10.68991437
7.818986958,10.16348056,-2.720501867,-4.750534689,11.54404813
7.828919958,9.692708362,-4.349213381,-0.144298757,10.6247388
7.838853958,5.12925183,-4.833007911,5.198392231,8.75730961
7.848786958,0.778445667,-4.147907195,9.212118106,10.13282941
7.858720958,-2.524697618,-2.445175778,7.694700741,8.459397268
7.868653958,-4.591832485,-1.422700074,2.205983435,5.289174225
7.878586958,-5.891684312,-0.937132083,-3.635707768,6.986310296
7.888520958,-5.779345266,-0.557311572,-8.060527695,9.933958658
7.898453958,-4.692098493,0.396250017,-9.705317298,10.78730672
7.908386958,-4.115723243,1.237032266,-8.777428493,9.773058764
7.918320958,-3.892524204,0.787146909,-6.020723591,7.212520883
7.928253958,-2.406302026,-1.024512874,-3.564054526,4.420678764
7.938187958,0.352471914,-2.587432687,-1.12580653,2.843674507
7.948120958,2.497019531,-3.733333758,1.380281302,4.698730037
7.958053958,3.621327711,-4.117841982,3.144736658,6.321392697
7.967987958,2.728499396,-3.861593603,3.694787743,6.00067251
7.977920958,0.591564708,-3.370078409,3.465538883,4.87004487
7.987853958,-0.753221656,-2.698961309,2.526039262,3.772613068
7.997787958,-1.221586261,-2.038965613,1.464244541,2.791713782
8.007720958,-1.143033669,-1.490877439,0.98728833,2.122258173
8.017654958,-1.19720074,-1.309497979,0.757886272,1.929369371
8.027587958,-1.328024297,-1.655578886,-0.052302156,2.123046277
8.037520958,-1.748921205,-2.216424515,-1.473562664,3.184752728
8.047454958,-1.891558476,-2.818411739,-1.851336649,3.866378873
8.057387958,-1.312027484,-3.221569072,-0.185994083,3.483463392
8.067320958,-1.024743254,-3.284779812,1.617788916,3.802251718
8.077254958,-0.958033394,-2.918987941,1.633315612,3.479373287
8.087188083,-1.144664385,-2.441868593,0.963917009,2.863933445
8.097122083,-1.358311266,-2.082331488,0.427708549,2.522706587
8.107055083,-1.61310018,-1.599899944,-0.090045879,2.273737074
8.116988083,-1.676562935,-1.122650203,-0.749605957,2.152467385
8.126922083,-1.359325465,-0.472008297,-0.87704858,1.685162237
8.136855083,-0.589249503,0.214378806,0.216678955,0.66341768
8.146788083,0.204399656,0.507246543,1.820111056,1.900495338
8.156722083,0.539338547,0.404182935,2.633780057,2.718648066
8.166655083,0.242738387,-0.223836678,2.797911401,2.817327278
8.176589083,-0.19412449,0.043006271,2.601097338,2.608685726
8.186522083,-0.823746532,1.518927702,1.649585197,2.388897452
8.196455083,-1.441206073,3.166108816,0.77091343,3.563092406
8.206389083,-2.02099712,4.295936476,0.995060449,4.850736528
8.216322083,-2.336189379,4.976444204,2.770393527,6.15612362
8.226255083,-1.979238644,5.669258568,4.980990415,7.801803883
8.236189083,-2.06938166,6.042783966,6.13326612,8.855198011
8.246122083,-2.382688631,6.017643278,6.135889181,8.918428772
8.256056083,-2.636369497,5.920363151,5.383613312,8.425226184
8.265989083,-2.618976954,5.811265216,3.638638393,7.339586709
8.275922083,-2.615199068,5.455277957,1.548578932,6.244791466
8.285856083,-2.580293822,4.637452462,-0.15540262,5.309240201
8.295789083,-2.501443534,3.530205579,-1.260865224,4.506589875
8.305722083,-2.650816505,2.514175261,-1.833047289,4.087538104
8.315656083,-2.864465579,2.0719328,-1.648828275,3.900859298
8.325589083,-3.273691152,2.671886362,-1.328631238,4.429592697
8.335523083,-3.329525338,3.676627461,-1.668358122,5.233234877
8.345456083,-2.311812191,4.518100265,-2.538974472,5.674865371
8.355389083,-0.967349909,5.785109451,-3.08675216,6.628068807
8.365323083,0.355589576,8.121725239,-3.539679238,8.866690133
8.375256083,1.384320412,10.77484672,-3.778675407,11.50182823
8.385189083,1.339638914,12.57940038,-3.359980853,13.08913357
8.395123083,1.604522168,12.15660926,-3.14699076,12.65943091
8.405056083,3.800435528,10.522951,-4.547750326,12.07716196
8.414989083,6.096539758,8.131872497,-7.69582516,12.74836743
8.424923083,6.584595155,6.371106294,-10.75801375,14.13091464
8.434856083,4.792627625,4.18198009,-10.30846344,12.11291276
8.444790083,2.02966854,1.49992659,-7.680087379,8.084124956
8.454723083,0.920791162,-0.45658802,-6.134296984,6.219801321
8.464656083,0.35848022,-1.961976494,-5.286481705,5.650198992
8.474590083,0.280020746,-3.202290217,-4.157846,5.255545415
8.484523083,0.891857312,-4.888531317,-2.728656102,5.669101518
8.494456083,1.754184869,-6.783211622,-1.884816052,7.255456981
8.504390083,2.530054252,-8.567214074,-1.390002444,9.040488831
8.514323083,2.235327394,-10.02303278,-1.678108208,10.40547557
8.524257083,1.585658173,-10.9304458,-3.066943547,11.46277017
8.534190083,1.350949475,-10.48503883,-4.994796275,11.6922664
8.544123083,0.81872275,-9.202701166,-5.488423483,10.74629276
8.554057083,0.222761375,-8.13707418,-4.447518525,9.275883778
8.563990083,-0.310858303,-7.535260618,-3.24421066,8.209853122
8.573923083,-0.500840772,-7.069528137,-2.537004545,7.527646487
8.583857083,-0.165292016,-6.507258711,-3.035344609,7.182273615
8.593790083,0.212905308,-5.966049786,-4.182615682,7.289262834
8.603724083,0.520467097,-5.605176008,-4.56769284,7.249324242
8.613657083,0.710646909,-5.463134276,-4.886464911,7.363993106
8.623590083,0.635340034,-5.664953848,-5.338763999,7.810106279
8.633524083,0.370161641,-5.897626253,-5.559822664,8.113608514
8.643457083,-0.054159689,-6.208874711,-5.244778778,8.127777241
8.653390083,-0.59058106,-6.348656495,-4.297297708,7.689017679
8.663324083,-0.948061991,-6.221938561,-3.295396602,7.104293051
8.673257083,-0.985533873,-6.039491984,-2.116264635,6.474976173
8.683191083,-0.871065709,-5.468038335,-0.508910368,5.560322695
8.693124083,-1.079898431,-4.368141988,1.816585185,4.852507268
8.703057083,-1.154788108,-2.811200368,4.75403337,5.642447728
8.712991083,-0.850263362,-0.347083704,7.766981097,7.821087536
8.722924083,-0.502898261,4.029458978,10.8017556,11.53981674
8.732857083,-1.329678474,11.74950857,13.5753192,18.00300774
8.742791083,-2.247761644,19.63536648,13.01679433,23.66510055
8.752724083,0.434759049,22.4678934,9.234533408,24.29551104
8.762657083,2.601443785,18.26204498,6.446522512,19.54040555
8.772591083,1.898752306,9.239910507,5.294705229,10.81735226
8.782524083,1.389420061,1.317120409,4.611373295,4.993000896
8.792458083,0.331643547,-3.815464919,3.021494309,4.878236141
8.802391083,-0.885448983,-6.166839663,0.85290148,6.288193084
8.812324083,0.327501379,-5.624575315,0.521846455,5.658217772
8.822258083,3.317862774,-2.929628119,2.657298728,5.162574051
8.832191083,4.892526135,1.540726706,1.866680328,5.458493035
8.842124083,5.901031086,6.907385432,-0.241544386,9.088040772
8.852058083,6.213616803,11.70353659,-1.822125714,13.37542316
8.861991083,5.128385273,14.20428197,-4.059366317,15.6377881
8.871925083,1.970730799,10.55947739,-6.932064191,12.78435984
8.881858083,-2.992954927,2.779669257,-11.55700186,12.25759488
8.891791083,-3.790428603,-2.045285869,-13.76876614,14.42669277
8.901725083,-1.428613217,-3.765975255,-11.33490473,12.02927972
8.911658083,2.393078256,-3.126183443,-6.990560905,8.022953834
8.921591083,5.154446898,-2.313735632,-2.637523737,6.235240722
8.931525083,5.185957543,-2.194082889,1.772520567,5.903387546
8.941458083,2.626557284,-2.184128589,8.228915226,8.909784883
8.951391083,0.076996136,-2.889285255,10.47214455,10.86368764
8.961325083,-1.382254591,-3.001559397,5.910718169,6.771748359
8.971258083,-2.451090236,-2.224635175,-0.535923627,3.353216239
8.981192083,-2.530171489,-1.574463387,-4.962528416,5.788556901
8.991125083,-2.14669106,-0.710967629,-7.246964235,7.591590618
9.001058083,-2.114898433,0.26653597,-8.423620491,8.689143743
9.010992083,-2.355865991,0.810939229,-8.477161691,8.835722796
9.020925083,-1.972153281,0.18035035,-6.728617923,7.014001281
9.030858083,-0.760409638,-1.423931497,-4.202121409,4.501513975
9.040792083,0.42698671,-2.740711598,-1.61209899,3.208220826
9.050725083,1.144749169,-3.514909263,0.638473849,3.751357974
9.060658083,0.999672221,-3.893191956,2.388460709,4.67557833
9.070592083,0.328818172,-3.70466369,3.481259707,5.094293238
9.080524583,-0.340989444,-3.267657995,3.670412455,4.926031888
9.090458583,-0.543054599,-2.74196875,3.310150881,4.332481942
9.100391583,-0.791032383,-2.223826506,2.579677525,3.496551543
9.110324583,-1.034369014,-1.908879098,1.923825166,2.900834697
9.120258583,-1.244280767,-1.870951134,1.262217393,2.577185581
9.130191583,-1.663967594,-2.161550151,1.08556833,2.935906301
9.140124583,-1.753742965,-2.658715509,0.83972573,3.293861236
9.150058583,-1.665475591,-3.194750233,0.444579009,3.630136153
9.159991583,-2.123222821,-3.4910076,0.16925577,4.08948123
9.169925583,-2.302971201,-3.571678711,-0.267870305,4.258206155
9.179858583,-1.871063985,-3.420244596,-1.267794467,4.099543431
9.189791583,-1.401505086,-3.050170224,-2.21301325,4.0205948
9.199725583,-1.200824918,-2.413776814,-2.612841178,3.754362531
9.209658583,-0.73138099,-1.267522572,-2.143973713,2.59579562
9.219591583,-0.060702065,0.046718668,-0.019293327,0.078991184
9.229525583,0.661306569,1.001208796,2.942770321,3.177993486
9.239458583,1.44799776,0.942597476,4.609155446,4.922347148
9.249391583,1.873095162,-0.348764779,3.82107386,4.269745637
9.259325583,1.710441848,-1.159927956,1.714511364,2.685254811
9.269258583,0.803254965,-0.163909149,-0.228353944,0.851017198
9.279192583,-0.181931145,2.706060998,-0.105643253,2.714226513
9.289125583,-1.274081101,5.700754595,2.449098528,6.334032618
9.299058583,-2.363930909,7.304687948,5.308191247,9.33399859
9.308992583,-3.38004265,7.361950901,6.231689962,10.22041923
9.318925583,-4.426000772,6.855607168,5.390580854,9.779938365
9.328858583,-4.73842072,6.688172733,4.312440827,9.261826564
9.338792583,-4.191023979,7.05415113,3.49464106,8.918421737
9.348725583,-3.834681208,6.983598041,2.526864012,8.358257193
9.358658583,-3.621204042,6.734859826,0.797831233,7.688172102
9.368592583,-3.801158536,6.267928081,-0.79283318,7.373215926
9.378525583,-4.362135143,5.580431176,-1.779099416,7.303056199
9.388459583,-3.927933773,5.09555725,-1.960189,6.725749648
9.398392583,-2.952389283,4.374528902,-1.520985922,5.492404188
9.408325583,-1.988617432,3.749596034,-1.587199792,4.531365455
9.418259583,-0.389054141,3.603642515,-1.912134243,4.098031218
9.428192583,1.576310814,3.584530306,-2.428112433,4.607531148
9.438125583,3.030323605,4.427855508,-2.746397431,6.027558743
9.448059583,3.06095249,6.122183307,-2.893787611,7.431323256
9.457992583,2.16460152,7.816224593,-2.852186426,8.597315513
9.467925583,1.860665005,8.391060271,-2.366792682,8.914800857
9.477859583,4.383208801,8.216251912,-2.432723109,9.624835406
9.487792583,7.733069585,7.447417898,-3.864952244,11.41062025
9.497726583,8.75432439,6.76487183,-5.816906025,12.49952328
9.507659583,6.419428854,5.333385145,-7.144726839,10.98640913
9.517592583,3.137134693,3.912381349,-6.68542805,8.357229811
9.527526583,0.398778938,1.973539363,-4.814983284,5.218998591
9.537459583,-0.407214424,-0.193507755,-4.151430143,4.175840163
9.547392583,-0.295549562,-1.535284703,-4.257835434,4.535814287
9.557326583,0.306997825,-2.754403439,-4.182499323,5.017398385
9.567259583,0.652045529,-3.973798163,-4.008969165,5.682259144
9.577192583,0.810510628,-5.045196351,-4.054896705,6.523275327
9.587126583,1.447401782,-6.12178979,-4.03246971,7.472087667
9.597059583,1.093215465,-6.812582186,-3.478782826,7.727116282
9.606993583,0.348566266,-7.3327616,-3.630283599,8.189618436
9.616926583,-0.066650949,-7.919287616,-4.253026099,8.989315307
9.626859583,-0.209741672,-8.289492381,-4.961803946,9.663290014
9.636793583,-0.580342878,-8.345136239,-4.848547472,9.66884219
9.646726583,-1.490517543,-8.264101431,-4.318149464,9.442638922
9.656659583,-1.334745671,-7.304088024,-3.248980234,8.104759122
9.666593583,-0.316916019,-5.998330509,-2.923997251,6.680581156
9.676526583,0.537288952,-5.121972046,-4.246760223,6.675196585
9.686459583,1.147287592,-4.948711445,-5.339169796,7.369718305
9.696393583,0.849272406,-5.607117868,-5.164891194,7.670536842
9.706326583,0.21541274,-5.757186658,-4.676605418,7.42039346
9.716260583,-0.277814664,-5.682926434,-4.41955714,7.204534625
9.726193583,-0.777188662,-5.657095774,-4.164599826,7.067577133
9.736126583,-1.013862463,-5.663818903,-3.723140307,6.853359425
9.746060583,-1.016180299,-5.87483556,-2.95102542,6.652433111
9.755993583,-1.168194604,-6.08235149,-1.527188063,6.379026701
9.765926583,-1.138393977,-6.025580288,0.350093266,6.142159551
9.775860583,-0.906622774,-5.54466902,2.59744312,6.189671248
9.785793583,-0.711330449,-4.69247593,5.10350537,6.969296121
9.795726583,-0.839244869,-3.429194344,6.94620919,7.791888597
9.805660583,-1.367404709,-0.545894299,8.166366976,8.298032647
9.815593583,-2.269268873,4.705816938,9.329250115,10.69248343
9.825527583,-3.04507613,11.80805674,8.935859971,15.11794583
9.835460583,-2.376950465,18.359635,7.413170756,19.94194553
9.845393583,1.485484259,21.92267329,7.068826472,23.08199678
9.855327583,4.430314555,18.10815094,8.33384702,20.42023074
9.865260583,3.97946353,8.50531311,6.724681578,11.54979755
9.875193583,3.251039916,-0.370547996,3.4857568,4.780906485
9.885127583,1.422631807,-5.360400451,2.304134797,6.005565037
9.895060583,-0.311542574,-6.245472434,2.732172909,6.824056968
9.904993583,1.21458422,-4.399029905,4.032348087,6.089869459
9.914927583,3.169660123,-1.110372219,2.299188929,4.070127945
9.924860583,3.392518854,2.863884366,-1.426104323,4.663131069
9.934793583,3.144461839,6.733068239,-4.479872923,8.67704498
9.944727583,2.340141951,9.075883244,-4.760229957,10.51226475
9.954660583,0.520904323,7.793144463,-6.566786875,10.20427027
9.964594583,-2.624175129,3.361972414,-11.12246836,11.91211384
9.974527583,-4.143907115,-0.643254533,-12.29102506,12.98672551
9.984460583,-2.533255603,-0.238706732,-10.59376312,10.8950531
9.994394583,1.714607551,2.736550135,-7.539061893,8.201587647
10.00432758,5.935666484,2.589272221,-2.968474681,7.123784751
10.01426058,6.791870763,-0.404545462,2.479519984,7.241628604
10.02419458,3.360193691,-3.069566023,7.030202104,8.374776345
10.03412758,0.002019482,-4.125762035,7.492016366,8.55290744
10.04406158,-2.039939906,-3.895957689,3.824313802,5.827968531
10.05399458,-3.550084358,-2.451710041,-0.731651862,4.375990805
10.06392758,-3.848414564,-1.241331723,-4.265324256,5.87743057
10.07386158,-3.418431374,-0.172668863,-6.301484667,7.17106663
10.08379496,-3.322292332,0.717394888,-7.391886306,8.135862887
10.09372796,-3.86287122,1.724730982,-7.230208454,8.376895923
10.10366196,-3.413809735,1.784595945,-5.3397896,6.58424123
10.11359496,-1.68723995,0.660893828,-3.284155329,3.750897963
10.12352796,0.969953382,-0.355441715,-1.533677888,1.849139324
10.13346196,2.880227333,-1.63423304,0.001446455,3.311559937
10.14339496,3.070011581,-2.717595216,1.549954782,4.383224235
10.15332796,1.696626924,-3.454385319,3.083439127,4.931421469
10.16326196,0.020763682,-4.104201597,3.960853012,5.70379334
10.17319496,-0.948379787,-4.812086574,4.011995684,6.33653776
10.18312796,-1.58530354,-4.894869114,3.719395165,6.348766128
10.19306196,-1.567513678,-4.622592348,3.059106524,5.760520104
10.20299496,-0.801402493,-4.0200894,2.163510722,4.635099069
10.21292896,-0.21990004,-3.344585134,1.347786716,3.612635434
10.22286196,0.026760513,-2.28002351,0.356146852,2.307826665
10.23279496,-0.110713666,-1.530678266,-0.22947745,1.551738822
10.24272896,-0.715910573,-1.542529988,-0.288267732,1.724826077
10.25266196,-1.095339393,-1.71027608,-0.75995319,2.1684883
10.26259496,-0.594666363,-1.750739397,-1.578565793,2.431169777
10.27252896,-0.239806447,-1.943989289,-2.415891752,3.110166305
10.28246196,-0.00689394,-2.036463005,-2.89399051,3.538701763
10.29239496,0.367630162,-2.009749416,-2.263302813,3.049062851
10.30232896,0.886904208,-1.708377489,-0.141618394,1.930079918
10.31226196,1.088525852,-1.669919182,2.582732695,3.262518472
10.32219596,1.064173076,-1.980536141,3.919005075,4.51813994
10.33212896,0.723023272,-2.143395131,3.694883637,4.332328523
10.34206196,0.220382435,-1.603473762,2.545297651,3.01632834
10.35199596,-1.058582261,-0.169517798,1.37961428,1.74718867
10.36192896,-2.830766906,1.845915695,0.61185133,3.434386128
10.37186196,-4.377030925,4.016847119,0.162743361,5.943058631
10.38179596,-5.712947209,5.937505433,0.963920663,8.295835077
10.39172896,-6.284824196,6.941075919,2.793425417,9.77142649
10.40166196,-6.472999874,7.067979795,4.545604106,10.60747767
10.41159596,-5.874943149,6.842572555,5.770116021,10.70653983
10.42152896,-4.246523411,6.238007294,6.721787791,10.10584619
10.43146196,-3.036296536,4.927697137,6.164213094,8.455697416
10.44139596,-2.697839521,3.968286577,3.40141393,5.881772961
10.45132896,-2.437340801,4.01639279,0.334392761,4.709974495
10.46126296,-2.155300062,4.058215585,-1.430238304,4.812485189
10.47119596,-2.003613494,3.628752798,-2.032834661,4.616787916
10.48112896,-1.533281154,2.965157556,-2.549975424,4.200652936
10.49106296,-0.890982787,2.770024275,-2.85127543,4.073899408
10.50099596,-0.534027083,3.460339538,-3.013222253,4.619376905
10.51092896,0.084730979,5.6661765,-3.151739284,6.484303816
10.52086296,0.949651557,8.007779378,-2.950734229,8.586803895
10.53079596,1.526032069,9.817708969,-2.708322701,10.2981161
10.54072896,1.750831052,11.79400003,-1.883460667,12.07109234
10.55066296,1.633805024,12.74173779,-1.114491071,12.89431236
10.56059596,1.72253009,10.8711527,-0.926572012,11.04570534
10.57052896,2.820369094,7.755466175,-1.308857124,8.355527775
10.58046296,4.891105261,5.62612892,-2.01793961,7.723232327
10.59039596,5.86362294,4.848663247,-3.309600365,8.297292561
10.60032996,5.317112344,3.571652983,-5.400379034,8.378095393
10.61026296,4.025888961,2.549387779,-6.214124926,7.830868954
10.62019596,2.14896782,2.081797053,-6.362700922,7.031067108
10.63012996,0.243694114,1.003640068,-6.035909395,6.123633107
10.64006296,-0.324077396,-0.163177662,-5.795146197,5.806493998
10.64999596,-0.341959058,-1.289090027,-5.437446288,5.598616903
10.65992996,-0.302654513,-2.134563496,-4.797708271,5.259844648
10.66986296,-0.339303546,-3.001837724,-4.150131768,5.133200786
10.67979596,-0.104790875,-4.27879127,-3.86860266,5.769325992
10.68972996,0.255571856,-5.586655537,-3.789031411,6.755205111
10.69966296,0.102854862,-7.084176582,-3.748690301,8.015535911
10.70959596,-0.429160924,-8.514906637,-4.329087265,9.561841386
10.71952996,-0.639422414,-9.783510944,-4.790932517,10.91233164
10.72946296,-0.549830352,-10.93306535,-5.33268114,12.17668755
10.73939596,-0.434582317,-11.77747814,-5.121193782,12.850077
10.74932996,-0.34008371,-12.04098408,-4.445298922,12.83984568
10.75926296,0.310736389,-11.40128816,-4.005678352,12.08848162
10.76919696,1.147671315,-10.06043625,-3.917369024,10.85703951
10.77912996,1.558014877,-8.421998473,-4.373414422,9.616871755
10.78906296,1.306854306,-7.512468172,-4.566208817,8.887930533
10.79899696,0.866864631,-7.483319217,-4.700503573,8.879541352
10.80892996,0.650566768,-7.546666197,-4.292500652,8.706375231
10.81886296,0.404622645,-7.187574066,-3.339187569,7.935686111
10.82879696,-0.081748168,-6.471892412,-2.078141958,6.797848788
10.83872996,-0.691387643,-5.297650471,-0.541762657,5.369974317
10.84866296,-0.800373457,-3.995948585,0.92267952,4.178461471
10.85859696,-0.456917511,-2.709592132,2.427442342,3.66648871
10.86852996,0.195249348,-1.302647966,4.156452901,4.360173706
10.87846296,0.719524152,0.311453696,5.441523551,5.497717433
10.88839696,0.632371403,2.579198638,6.088683439,6.64260681
10.89832996,-0.17713672,6.846063927,6.853058367,9.688363004
10.90826396,-2.34174248,12.99947838,8.164806939,15.52849859
10.91819696,-2.637128465,18.49668438,9.123891224,20.79247871
10.92812996,-0.394748452,19.99968076,9.210075089,22.02200127
10.93806396,0.001898591,15.24773865,8.170428452,17.29882767
10.94799696,-1.748688194,7.386636676,6.344855804,9.893306169
10.95792996,-1.343435511,0.36036507,3.641095685,3.897724945
10.96786396,0.482002358,-5.06002489,-0.153098817,5.085235236
10.97779696,-0.081606958,-7.681509422,-0.173153597,7.683894121
10.98772996,0.888439395,-6.545935704,1.857630007,6.862170796
10.99766396,3.068434587,-2.450669237,4.450028735,5.934966408
11.00759696,3.901755788,3.606871347,3.605262778,6.421147783
11.01752996,4.906709141,9.113948033,0.467805319,10.36140363
11.02746396,6.285001366,12.31143652,-2.686124917,14.08147643
11.03739696,5.659891913,12.38819643,-6.256630676,14.98823587
11.04732996,3.438907739,7.484606189,-13.6740085,15.96320534
11.05726396,-0.676939319,1.024494748,-17.27656928,17.3201525
11.06719696,-0.785330325,-0.1393678,-13.20043549,13.22450998
11.07713096,3.261556426,2.260837626,-6.463465989,7.584558635
11.08706379,5.81351464,3.101517549,-1.164098191,6.691149989
11.09699679,4.598461474,1.770460301,4.166086189,6.452646878
11.10693079,1.495798455,0.157357929,7.851454067,7.994217004
11.11686379,-1.429316344,-1.140761953,6.858841263,7.098449585
11.12679679,-2.798179788,-2.303855592,2.111326953,4.194670693
11.13673079,-3.352865376,-2.718865816,-3.25415502,5.405872959
11.14666379,-3.266902827,-2.510158809,-7.380888863,8.452873578
11.15659679,-3.433566015,-2.385755203,-9.143500446,10.05409389
11.16653079,-3.245982367,-2.258622116,-8.625178108,9.488491597
11.17646379,-1.726539233,-1.671995528,-6.367144221,6.805661783
11.18639679,-0.048199476,-1.894520091,-3.1350525,3.663343246
11.19633079,1.6604426,-2.82027817,-0.08242703,3.273810135
11.20626379,2.884208702,-3.838380157,1.898765169,5.163054448
11.21619679,3.507050605,-4.871542817,2.775839331,6.613366568
11.22613079,2.406596726,-5.381525856,2.72704841,6.495330736
11.23606379,0.601891549,-5.264234219,2.950537763,6.06466062
11.24599679,-0.718558192,-4.453133022,3.05531402,5.448088045
11.25593079,-1.878020418,-2.990603469,2.51134287,4.33330276
11.26586379,-2.157199237,-1.582227319,1.494231402,3.064258364
11.27579779,-2.18539802,-0.788511064,0.662560869,2.415926553
11.28573079,-2.588690716,-0.474403902,-0.293382876,2.648103509
11.29566379,-2.869100959,-0.959041016,-0.371601664,3.047882507
11.30559779,-3.28165506,-1.943118054,0.094474651,3.814956509
11.31553079,-3.322392612,-2.903012763,0.754460388,4.476045827
11.32546379,-2.848587172,-3.472504671,1.115796096,4.62793026
11.33539779,-2.289546578,-3.328542128,1.141025662,4.197994259
11.34533079,-1.58032025,-2.489730392,1.259110183,3.206482179
11.35526379,-1.020651738,-1.325326391,1.460537406,2.220673215
11.36519779,-0.686825133,-0.394127478,1.086452502,1.344412241
11.37513079,-0.714579746,0.177392244,0.269528575,0.784052214
11.38506379,-0.88405581,0.311832595,-0.162137297,0.951358369
11.39499779,-0.873891303,0.025141273,0.035551217,0.874975418
11.40493079,-0.264007049,-0.694174426,0.743393948,1.05081512
11.41486379,0.393919025,-1.560592622,1.565838743,2.245545034
11.42479779,0.897565583,-1.941970246,2.144272359,3.02898933
11.43473079,1.139538935,-1.400076612,2.801956505,3.333125224
11.44466479,0.582857473,-0.118920672,2.724631755,2.788813935
11.45459779,-0.391121278,1.440570334,1.84724506,2.374980643
11.46453079,-1.625160354,2.935211041,1.044657994,3.513960779
11.47446479,-2.605528943,4.149364906,0.887545648,4.979332031
11.48439779,-3.169965347,5.31321459,1.819599717,6.449021066
11.49433079,-4.025645424,5.981768855,3.202893942,7.889607679
11.50426479,-5.152945333,5.972019793,4.251987341,8.960873973
11.51419779,-5.274593146,5.712320972,5.067497631,9.280704498
11.52413079,-3.559718231,4.965105869,5.376796628,8.138415826
11.53406479,-1.636736818,3.823500747,4.390947883,6.048015268
11.54399779,-1.105221845,3.024916685,2.54952168,4.107517142
11.55393079,-0.796131009,2.601231532,1.030056181,2.908822064
11.56386479,-0.387684723,2.049229231,-0.060068446,2.086443889
11.57379779,0.228944074,1.377284165,-1.698440877,2.198642416
11.58373079,0.732736374,1.198304987,-2.624233893,2.976481305
11.59366479,1.163842229,2.493460915,-2.799670243,3.925561048
11.60359779,0.869374256,4.480828943,-3.126775181,5.532663251
11.61353079,0.344722745,6.539308469,-3.599213834,7.472330911
11.62346479,0.599556755,9.161884092,-3.448801228,9.807844734
11.63339779,0.241015724,12.26038214,-2.748350986,12.56696033
11.64333079,-0.151263814,14.73895487,-1.563191855,14.82238983
11.65326479,-0.123745136,14.45647238,-0.190676387,14.45825937
11.66319779,0.120651155,12.20014763,0.272307757,12.20378263
11.67313179,3.145633621,9.820792791,-0.387487526,10.31955079
11.68306479,5.836603541,7.820775481,-1.763142072,9.916609299
11.69299779,6.632150559,5.381231741,-5.201203573,9.999779733
11.70293179,5.183592929,3.560564908,-7.725070009,9.961122666
11.71286479,3.107129706,1.981245409,-8.388525503,9.162256736
11.72279779,0.081587954,-0.35710934,-8.212683356,8.220848592
11.73273179,-0.614423959,-2.249516832,-7.409553083,7.767838803
11.74266479,-0.44399955,-3.302873436,-5.936092161,6.807591254
11.75259779,-0.739397376,-3.964830873,-4.687561346,6.183835679
11.76253179,-0.493760524,-4.720677636,-3.582649841,5.946761866
11.77246479,-0.037712056,-5.801112696,-3.149152476,6.600870551
11.78239779,0.120434224,-6.90196097,-3.425068549,7.706014807
11.79233179,-0.196957173,-7.813534874,-4.139131109,8.84434993
11.80226479,-0.869768066,-8.789390727,-5.089295467,10.1936654
11.81219779,-1.30804056,-9.949916854,-6.244424613,11.81967234
11.82213179,-1.561713971,-10.49498962,-6.964767668,12.69219234
11.83206479,-1.831240792,-10.2565963,-5.992088606,12.01899897
11.84199779,-1.976378186,-9.695477019,-3.97422384,10.66315153
11.85193179,-1.805526199,-8.726513278,-2.50544186,9.256845995
11.86186479,-1.336353655,-7.654730344,-2.344593728,8.116517571
11.87179879,-0.663663654,-6.795828159,-3.412936746,7.633601184
11.88173179,-0.043645957,-6.680379564,-4.196015747,7.888974853
11.89166479,0.49293022,-6.910066381,-4.498900348,8.260272509
11.90159879,0.858920019,-7.183594451,-4.585432123,8.565509943
11.91153179,0.647632051,-7.37349272,-4.14168108,8.481824351
11.92146479,0.54604428,-7.442057755,-3.224921281,8.129114666
11.93139879,0.545011077,-7.178696238,-2.047051143,7.484726791
11.94133179,0.898222371,-6.50593841,-0.440288907,6.5823926
11.95126479,1.2337913,-5.396510516,1.290773732,5.684246964
11.96119879,1.19217345,-3.974736641,2.943467017,5.087613093
11.97113179,1.03879923,-2.226579375,4.601250888,5.216154645
11.98106479,1.194044559,1.494148956,5.102190331,5.448905366
11.99099879,0.501409267,9.333954785,7.369084504,11.90283704
12.00093179,-1.450140472,18.91714129,15.39678301,24.43403505
12.01086479,-0.536129595,26.84877706,13.91557686,30.24545493
12.02079879,4.022734095,27.09382217,9.691393908,29.05478799
12.03073179,4.750680869,16.15937804,7.354061252,18.37870192
12.04066479,1.94274471,3.718392953,6.038764005,7.35305201
12.05059879,1.007315189,-5.493080206,5.012946618,7.504548476
12.06053179,-0.890260218,-10.52869765,2.836690135,10.94042268
12.07046479,-4.725624965,-10.92300581,1.650421057,12.01530178
12.08039879,-5.382508188,-6.664139507,3.558386235,9.276004655
12.09033183,-1.737482589,-0.301703464,2.245622587,2.855291847
12.10026483,1.922848096,4.853987721,-1.753375906,5.507528363
12.11019883,4.996207209,8.849054546,-5.209890781,11.41975546
12.12013183,5.868944491,11.87617446,-8.872863824,15.94414443
12.13006483,3.477547602,11.90759038,-9.148592201,15.41365581
12.13999883,-2.188088031,7.874123722,-9.987433759,12.90497527
12.14993183,-5.686019611,3.345168686,-11.10184523,12.91402107
12.15986583,-4.593623195,2.00040498,-9.294785457,10.55916809
12.16979883,0.280340515,1.138275717,-5.886146414,6.001748247
12.17973183,5.456716372,-1.83022937,-1.627233046,5.981085227
12.18966583,6.441474026,-4.356779678,3.094666658,8.369652234
12.19959883,3.443133814,-5.29407256,7.495788404,9.801490628
12.20953183,0.005090001,-5.579851717,7.482381324,9.333852439
12.21946583,-2.20527943,-4.775147958,3.328627498,6.224552707
12.22939883,-2.82669315,-3.124714622,-1.476367573,4.464716883
12.23933183,-2.744650283,-1.821501231,-5.018642975,6.003144944
12.24926583,-2.176957125,-0.758751075,-6.909768173,7.284211812
12.25919883,-1.307573514,0.42364013,-7.741676102,7.862745597
12.26913183,-0.209140724,1.968262836,-8.168235161,8.404633489
12.27906583,0.874187538,2.344891936,-7.46904324,7.877139644
12.28899883,2.347763796,0.743012125,-5.455962666,5.985949421
12.29893183,2.433541134,-1.195421725,-2.459488592,3.660633782
12.30886583,1.549194644,-2.783755292,1.294154885,3.438623916
12.31879883,0.71003953,-3.64203007,4.680830031,5.973165739
12.32873183,-0.274162786,-3.899246163,6.560184783,7.63644618
12.33866583,-1.285012471,-3.85987803,6.875423967,7.988827835
12.34859883,-1.785921509,-3.301198209,5.674663149,6.803618677
12.35853183,-1.876627465,-2.525153409,3.584398159,4.769280925
12.36846583,-1.975693916,-2.074274025,1.740488643,3.351906905
12.37839883,-2.140722222,-2.018781025,0.030040646,2.942629929
12.38833183,-2.562272411,-2.306552913,-1.031867502,3.598635406
12.39826583,-2.854251955,-2.925647335,-0.804258785,4.165693069
12.40819883,-2.543082141,-3.240278993,-0.249169721,4.126591848
12.41813183,-1.556551611,-2.831231759,0.282059176,3.243190338
12.42806583,-0.692220578,-2.224956188,0.501467739,2.383499373
12.43799883,-0.459256397,-1.83664552,-0.210488069,1.904859163
12.44793183,-0.503104156,-1.592831245,-1.579717695,2.299072239
12.45786583,-0.771612026,-1.644529402,-2.472254233,3.067882506
12.46779883,-0.723377175,-1.669726224,-1.711379449,2.498015176
12.47773283,-0.297668446,-1.926514885,0.322413278,1.975858403
12.48766583,0.632731445,-2.188826827,2.340320144,3.266253257
12.49759883,1.33722606,-2.377626988,3.118080372,4.142910672
12.50753283,0.830046176,-2.33201052,2.419936856,3.461696709
12.51746583,-0.350929857,-1.702477648,1.123065501,2.069506711
12.52739883,-1.482406285,-0.445278336,0.257093886,1.569043803
12.53733283,-1.886750457,1.562320474,0.414891233,2.484513491
12.54726583,-1.860893192,3.665462787,1.674908904,4.438903102
12.55719883,-1.905422955,5.283604875,2.857462076,6.301762184
12.56713283,-2.369416767,6.329894534,3.535287102,7.627578614
12.57706583,-3.10663854,6.701079292,4.268668571,8.530955284
12.58699883,-3.630214894,6.677716742,5.249066541,9.237048263
12.59693283,-3.589739006,6.407138591,6.209963463,9.617759472
12.60686583,-3.650951167,5.819350162,6.18011869,9.240570748
12.61679883,-3.844428224,5.386493651,3.960655961,7.71237563
12.62673283,-3.957289719,4.925045425,0.740208093,6.361141594
12.63666583,-3.72816365,4.404433901,-1.270787218,5.908734412
12.64659883,-2.554084847,3.387030657,-1.72723242,4.58024649
12.65653283,-1.271359953,3.327098451,-2.356841745,4.270906606
12.66646583,-0.620151014,3.9803564,-2.989024136,5.016182776
12.67639883,-0.30468262,5.624043803,-3.462158607,6.611296576
12.68633283,0.254562626,7.681227586,-3.849496883,8.595620141
12.69626583,0.898796422,9.242883232,-3.626578803,9.96949343
12.70619883,1.4477513,10.72419112,-2.985936806,11.22586645
12.71613283,1.349639114,12.58383023,-2.103017183,12.82953585
12.72606583,1.258534524,13.40388936,-1.494889798,13.54558432
12.73599883,1.386807818,12.18477413,-1.20884357,12.32287545
12.74593283,4.016113878,10.5087142,-1.465595979,11.34505251
12.75586583,6.985094928,8.306918253,-2.897760794,11.23358623
12.76579883,8.171060536,5.919190784,-5.702446779,11.5896915
12.77573283,6.425154448,4.113848333,-7.567509182,10.74586213
12.78566583,4.009498923,2.429005888,-8.159507023,9.410297873
12.79559883,0.821935503,0.16983004,-8.285699292,8.328099001
12.80553283,-1.952849575,-2.730100071,-8.465473691,9.106663093
12.81546583,-1.991382142,-4.372815667,-6.736695267,8.274671161
12.82539883,-1.010812263,-5.237568576,-5.875362979,7.935600554
12.83533283,0.061305425,-6.160355101,-5.212701538,8.070067574
12.84526583,0.41884132,-6.847904631,-4.766563076,8.354002002
12.85519883,1.358271066,-8.104430344,-4.686525219,9.459926539
12.86513283,1.058702859,-9.838206968,-4.717145918,10.96187182
12.87506583,0.517980423,-11.29218263,-6.124353209,12.85649231
12.88499983,-0.807067349,-11.32346874,-5.832587673,12.76289078
12.89493283,-2.576627033,-10.60393026,-3.398743799,11.42951457
12.90486583,-2.773838999,-9.272426289,-2.141488354,9.912519581
12.91479983,-1.998549805,-8.17727788,-2.343087485,8.737970807
12.92473283,-1.078941388,-7.293284708,-3.447994312,8.139089699
12.93466583,-0.221437857,-6.690150261,-4.573231323,8.106885343
12.94459983,0.142969978,-6.436268835,-5.185344754,8.2664259
12.95453283,0.496054972,-6.360917521,-5.330736941,8.314090364
12.96446583,0.334445679,-6.433285001,-5.235825521,8.301378121
12.97439983,0.001624649,-6.487364144,-4.614465888,7.961104924
12.98433283,0.018110289,-6.596573761,-3.669402056,7.548484935
12.99426583,0.214415059,-6.74380782,-2.707031636,7.270002614
13.00419983,0.532645093,-6.972053883,-1.482293726,7.147757749
13.01413283,0.909173329,-7.059511857,0.289968102,7.123719906
13.02406583,0.953892688,-6.605833411,1.73376493,6.895860146
13.03399983,0.26551797,-5.93229381,2.780788414,6.557087299
13.04393283,-0.164961063,-3.958334616,5.618836273,6.875096083
13.05386583,-0.22960174,-0.094643033,8.472866326,8.47650506
13.06379983,-1.129327284,6.518611665,9.530220671,11.60141303
13.07373283,-3.238683872,16.8222839,11.09725517,20.4114522
13.08366558,-0.227442656,26.97031494,9.913907361,28.73560818
13.09359958,8.421635946,31.05191003,5.303144515,32.60779677
13.10353258,10.00569344,21.63202924,5.913585058,24.5566504
13.11346558,2.985165558,5.819774669,7.609413253,10.03414972
13.12339958,0.066100726,-4.33234241,6.043407864,7.436150797
13.13333258,-1.165690387,-7.537105415,3.501891022,8.392260294
13.14326558,-2.250280625,-4.272004407,2.356779326,5.372912928
13.15319958,-0.132032176,0.831075286,3.902710639,3.992401402
13.16313258,3.857888222,5.491925381,1.876237602,6.96884592
13.17306558,7.268122385,7.955461416,-3.209257175,11.24341145
13.18299958,6.917581222,8.152789156,-8.196872485,13.47255059
13.19293258,4.333832281,6.04804763,-10.99327998,13.27453152
13.20286558,-0.582506055,0.916404873,-10.26484789,10.32212252
13.21279958,-2.982272356,-3.027728611,-10.18057314,11.03200609
13.22273258,-3.152568127,-3.766555299,-9.81396909,10.97449834
13.23266558,-1.413636012,-2.413593796,-7.512108568,8.015957643
13.24259958,1.06022065,-1.036271625,-3.702693179,3.988466307
13.25253258,1.792826193,-0.62808861,0.638491391,2.004093889
13.26246558,0.789336106,-0.67751103,5.137109903,5.241371084
13.27239958,-1.36978131,-0.623045386,7.990762811,8.131222337
13.28233258,-2.57828121,-0.608607441,5.100055513,5.747043
13.29226558,-2.84748468,-0.466220723,-1.396173595,3.205437797
13.30219958,-2.764636066,-0.071621375,-6.688277982,7.237499884
13.31213258,-2.707687109,0.752579924,-8.821908263,9.258726231
13.32206558,-2.807018732,1.093628132,-8.218076243,8.752836899
13.33199958,-2.953323961,0.142572659,-6.019480473,6.706459166
13.34193258,-1.976013612,-1.873780017,-3.072276793,4.105431285
13.35186558,-0.27070657,-3.831488044,-0.165764617,3.844614491
13.36179958,0.734047174,-5.492426487,1.616722383,5.772292892
13.37173258,0.801459869,-6.075003294,1.906506737,6.417380375
13.38166558,0.373542648,-5.689937246,2.032617291,6.053631391
13.39159958,-0.122857018,-4.750565094,2.279014866,5.270376772
13.40153258,-0.705051709,-3.740172662,2.276599381,4.434962705
13.41146558,-1.003980011,-2.639079389,1.942448548,3.427217858
13.42139958,-1.20303385,-1.671531259,1.132558821,2.35031842
13.43133258,-1.864427395,-1.015866011,0.298983339,2.14416984
13.44126558,-2.120263984,-0.622677011,-0.154319715,2.215188614
13.45119958,-1.775597519,-0.491451459,-0.374336407,1.879999689
13.46113258,-1.526091857,-0.880676047,-0.176706402,1.770811059
13.47106558,-1.620743075,-1.966424471,0.311175917,2.567189858
13.48099958,-1.378620692,-2.722665921,0.707783162,3.132804133
13.49093258,-0.866111217,-2.917033802,0.88755705,3.169699096
13.50086558,-0.235123558,-2.686091588,0.675000236,2.779567668
13.51079958,0.169900206,-2.321179723,0.304029486,2.347163248
13.52073258,0.179903477,-1.999432588,-0.116478802,2.010886184
13.53066558,0.248004536,-1.682633952,-0.339566451,1.73437846
13.54059958,0.15125212,-1.515449778,0.249668068,1.543307933
13.55053258,-0.071193213,-1.498663591,1.221044662,1.934427848
13.56046558,-0.372909687,-1.324477376,1.538900621,2.064344224
13.57039958,-1.000741019,-0.839401136,1.364540159,1.888927393
13.58033258,-1.284783114,0.521564035,1.644347115,2.150947263
13.59026558,-1.486446711,2.121502571,2.230701369,3.418526814
13.60019958,-1.928885785,3.29228062,2.405872256,4.510868361
13.61013258,-2.933797477,3.982173715,2.1313639,5.385869215
13.62006558,-3.755382439,4.468274387,2.043143156,6.184076909
13.62999958,-3.920734096,4.949699625,2.284366822,6.714909829
13.63993258,-3.537247381,5.219501849,3.027236567,6.994246194
13.64986558,-2.817825848,5.632075539,3.964969744,7.44186821
13.65979958,-2.158288281,6.108551109,3.877764663,7.550474404
13.66973258,-2.326117989,6.359676157,2.311507258,7.155373612
13.67966558,-2.545098846,6.863632472,0.427450175,7.332782043
13.68959958,-2.746788025,7.986064573,-0.307518812,8.450836623
13.69953258,-3.448562077,9.130142482,-0.371997375,9.766804195
13.70946558,-3.658171602,8.634757601,-0.887504425,9.419603091
13.71939958,-3.004917161,6.613528932,-1.519145218,7.421326988
13.72933258,-1.750266796,4.517637166,-2.164979542,5.306563468
13.73926558,0.129458524,3.589879339,-2.475428102,4.362537961
13.74919958,1.935669286,3.788468909,-2.487744677,4.92830456
13.75913258,3.51937332,4.621868463,-2.758271956,6.430841379
13.76906558,4.99364262,6.891390374,-3.370376033,9.153532788
13.77899958,6.318351545,9.580371655,-4.147960989,12.20289587
13.78893258,6.70689961,10.12467376,-4.644297212,13.00234662
13.79886558,6.355390733,7.573716586,-5.187329884,11.1651496
13.80879958,5.688028715,5.195628253,-5.900826434,9.704018559
13.81873258,4.493128269,3.691779935,-6.378410051,8.631428359
13.82866558,2.064429945,2.644753527,-6.339850003,7.172885771
13.83859958,-0.61698979,1.365569853,-4.411212286,4.658782165
13.84853258,-0.347879511,-0.01443736,-2.681454746,2.703965263
13.85846558,0.545004061,-1.235796164,-1.493767717,2.013842988
13.86839958,0.952567417,-1.996676211,-1.19173067,2.512831583
13.87833258,0.852164731,-2.29092389,-1.331719152,2.783521672
13.88826558,0.536936365,-3.249682485,-1.567369545,3.647654617
13.89819958,0.475233914,-4.841762947,-3.17071116,5.807058203
13.90813258,-0.061051656,-6.461422387,-5.552896637,8.519880729
13.91806558,-0.641878098,-7.403726333,-5.37029277,9.168817565
13.92799958,-0.964238021,-7.699857985,-4.09998517,8.776528148
13.93793258,-1.004840794,-7.579448612,-2.858020778,8.162476894
13.94786558,-1.082761667,-7.356732261,-2.115585773,7.731079197
13.95779958,-1.172040171,-7.073020679,-2.214215437,7.503602448
13.96773258,-1.1939263,-7.084907484,-2.889595742,7.74410341
13.97766558,-0.762355299,-7.282564423,-3.399879913,8.073172462
13.98759958,-0.752250141,-7.240008972,-4.22614411,8.416882097
13.99753258,-0.893937239,-6.815211094,-5.515592571,8.812944312
14.00746558,-0.506169778,-6.409867487,-6.380169479,9.05809978
14.01739958,-0.136478691,-6.193160319,-7.38377037,9.638149514
14.02733258,-0.489109357,-6.193339244,-7.491346275,9.73226325
14.03726558,-1.059142424,-6.233370452,-6.303923541,8.928389657
14.04719958,-1.525299266,-6.128712308,-4.742381331,7.897963858
14.05713258,-1.740570212,-5.917022052,-2.978576916,6.849281354
14.06706558,-1.70337008,-5.463686838,-0.825098262,5.782225404
14.07699958,-1.532828287,-4.406979779,1.437339748,4.882312862
14.08693304,-1.129901919,-2.978034879,3.964996934,5.085918872
14.09686604,-0.448469454,-1.382033858,6.94618814,7.096525355
14.10680004,-0.026838427,0.438725361,8.71673381,8.727808921
14.11673304,1.139578477,3.72542306,7.403369068,8.365840641
14.12666604,2.240308345,8.617230572,7.079742054,11.37534139
14.13660004,3.079988978,13.33376136,8.348346945,16.03029697
14.14653304,4.21953851,15.10138635,8.142089921,17.66776735
14.15646604,2.677923612,12.00873669,7.892710851,14.61765769
14.16640004,1.306416642,6.401886038,8.355143164,10.60656809
14.17633304,0.50147651,0.693631219,8.088032997,8.133196218
14.18626604,-0.745572036,-3.048214331,7.247842487,7.898019308
14.19620004,-1.687687409,-4.874187512,5.865236771,7.810697477
14.20613304,-0.0530379,-4.613328604,5.105958862,6.881600811
14.21606604,1.093178335,-2.217468828,4.581522675,5.206011611
14.22600004,0.554007457,1.023741626,2.064337267,2.369907072
14.23593304,0.493923077,5.278655791,-0.32158926,5.31145805
14.24586604,1.589486053,9.184488258,-1.766887652,9.487000709
14.25580004,2.723049206,11.50281922,-3.648853771,12.37109457
14.26573304,3.31340778,11.66610271,-7.23701052,14.12271025
14.27566604,2.346536027,7.941473706,-11.90735532,14.50373561
14.28560004,1.350054266,0.894525762,-15.08010482,15.16681853
14.29553304,1.96917851,-2.61018011,-13.26746212,13.66441566
14.30546604,4.548951052,-1.231370407,-7.93733914,9.230957772
14.31540004,6.45322693,-0.737866575,-4.32878818,7.805574418
14.32533304,6.783527956,-2.158954571,-0.061451898,7.119066842
14.33526604,5.05373504,-3.857450851,6.879804701,9.367597218
14.34520004,-0.163082791,-3.678794439,9.794620653,10.46397239
14.35513304,-4.309848756,-2.566302604,5.498080745,7.442418776
14.36506604,-5.924721081,-1.324344644,-2.368541292,6.516609277
14.37500004,-6.798825442,0.864402661,-9.601812226,11.79686473
14.38493304,-5.350223372,2.594975595,-11.80525709,13.21827839
14.39486604,-4.332123432,2.344173898,-9.29990177,10.52381193
14.40480004,-2.77557299,0.954553277,-4.132064749,5.068425443
14.41473304,-1.060519736,-0.764794173,0.245089552,1.330293623
14.42466604,-0.010302575,-2.659362795,2.653419685,3.756720997
14.43460004,0.552584099,-4.612260318,3.268339196,5.679818265
14.44453304,-0.083072562,-5.907332046,2.535107709,6.428860245
14.45446604,-0.754102539,-6.445275301,2.182217134,6.846335952
14.46440004,-0.60702957,-5.951266855,2.254260678,6.392789163
14.47433304,-0.159272673,-5.011179004,2.228164555,5.486528965
14.48426604,0.263071202,-3.792245625,2.079945824,4.333186815
14.49420004,0.461989897,-2.752953914,1.611284473,3.223108371
14.50413304,0.142293747,-1.924242657,1.019844457,2.18243901
14.51406604,-0.4214005,-1.273408964,0.468845538,1.42090285
14.52400004,-0.729893312,-1.028325258,-0.424795539,1.330657106
14.53393304,-1.119887685,-1.371621721,-0.867663653,1.971886099
14.54386604,-1.419182096,-1.988307676,-0.867951336,2.592447638
14.55380004,-1.466001629,-2.660925171,-0.892958708,3.166553142
14.56373304,-1.079438548,-3.102531456,-1.360917224,3.555697499
14.57366604,-0.518384465,-2.907848411,-2.018952348,3.577774925
14.58360004,-0.496421008,-2.390200256,-1.551053474,2.892275568
14.59353304,-0.609736246,-1.904429952,0.114203138,2.002916396
14.60346604,-0.327738191,-1.622992938,1.997855594,2.594791971
14.61340004,-0.043511763,-1.573695647,3.341877873,3.694124928
14.62333304,0.295465069,-1.163381907,3.044614785,3.272680286
14.63326604,0.461592214,0.115786564,2.270263484,2.31960561
14.64320004,-0.027661423,1.73475194,2.409527643,2.969167039
14.65313304,-0.723145771,3.761141946,3.535586772,5.212437277
14.66306604,-1.757497755,5.409574365,4.311222267,7.137151435
14.67300004,-3.067423311,6.104332927,3.88035264,7.856787058
14.68293304,-4.31599418,6.449055526,3.192023091,8.390895921
14.69286604,-5.232617739,6.650499122,3.30179404,9.083571481
14.70280004,-5.792952322,6.756693914,4.483225132,9.965466213
14.71273304,-5.353646332,6.756239001,4.187385256,9.583448741
14.72266604,-5.052646288,6.277579495,1.743312556,8.244778802
14.73260004,-4.595809469,5.765486196,-1.099475348,7.454605408
14.74253304,-4.042926285,6.168362862,-2.486088746,7.782967982
14.75246604,-4.463672043,7.012279218,-2.219617095,8.603669449
14.76240004,-5.226744211,6.841684363,-2.075324185,8.856323754
14.77233304,-4.402498181,5.809727399,-2.862917236,7.831425016
14.78226604,-1.087947562,4.658739835,-4.022135925,6.250205129
14.79219904,1.984282599,4.517071155,-4.800883309,6.884024244
14.80213304,3.834475386,6.190043753,-4.864025052,8.756630794
14.81206604,5.990367771,8.406398102,-4.509956263,11.26462341
14.82199904,8.160491109,9.857095814,-3.551083063,13.28029156
14.83193304,9.817103198,9.410411807,-2.201311071,13.77596225
14.84186604,10.85149904,6.891079302,-1.269952236,12.91722818
14.85179904,9.103609571,4.20698103,-0.750665692,10.05673384
14.86173304,5.49953904,2.887368538,-0.154184352,6.21334045
14.87166604,3.421573083,3.236475379,0.078589794,4.710425841
14.88159904,2.465085547,3.788825004,-1.029290926,4.63586901
14.89153304,1.108835571,3.243756917,-3.101285414,4.622709863
14.90146604,-0.435905395,2.622322438,-5.96178892,6.527596465
14.91139904,-2.183139386,1.61052492,-8.721132671,9.133347861
14.92133304,-3.047414139,0.43451829,-9.043579132,9.553107484
14.93126604,-2.439097889,-0.690011208,-7.589915712,8.002008154
14.94119904,-1.540234956,-2.054073064,-6.796265531,7.265037167
14.95113304,-1.325215879,-3.964156104,-4.940843432,6.471681742
14.96106604,-0.929170953,-5.637828029,-3.445472408,6.672311718
14.97099904,-0.534704336,-6.900319657,-5.301566936,8.71819546
14.98093304,-0.940967564,-7.843386079,-5.624444337,9.697344959
14.99086604,-1.003370804,-8.797334754,-4.631759028,9.992649471
15.00079904,-1.019312945,-9.374686489,-3.686399328,10.12488448
15.01073304,-1.028988625,-9.628511197,-2.864317644,10.098087
15.02066604,-0.717468856,-9.013250794,-3.181172413,9.585056565
15.03059904,0.174298774,-7.70828967,-4.468619957,8.911603336
15.04053304,1.005954104,-6.618420128,-5.963942449,8.965714594
15.05046604,1.055021014,-6.079122072,-6.69349136,9.103385145
15.06039904,0.88430132,-6.006035385,-6.277500558,8.73278095
15.07033304,0.306781917,-6.13262468,-6.091112373,8.648979741
15.08026604,-0.188219825,-6.122785571,-5.537937706,8.257886163
15.09019892,-0.415605763,-6.084904969,-4.24320687,7.429912595
15.10013292,-0.585112744,-6.096733886,-2.803986658,6.736086562
15.11006592,-0.699363829,-6.003673695,-1.409967177,6.206546144
15.11999892,-0.661135903,-5.811566348,0.046089508,5.849233141
15.12993292,-0.254564381,-5.526574227,1.521910951,5.73794725
15.13986592,0.332773521,-4.935789099,3.048045346,5.8106224
15.14979892,1.131952099,-3.55312608,4.988608167,6.228341026
15.15973292,2.077006136,-0.982832751,6.330504398,6.734626986
15.16966592,2.306231023,2.946255847,7.361107732,8.257422848
15.17959892,0.481777825,8.605625603,8.423010626,12.05139037
15.18953292,-1.073073123,14.14594546,7.931022978,16.25301155
15.19946592,-0.208806702,16.81180218,6.841041169,18.15158773
15.20939892,-0.867183743,15.32785135,7.555108992,17.11066061
15.21933292,-2.325253478,10.81129358,8.114584619,13.71631715
15.22926592,-2.224208475,4.956781772,7.952543655,9.631185777
15.23919892,-2.342021684,0.407597709,6.500448459,6.921490564
15.24913292,-2.450354364,-1.05119138,5.313500519,5.944958166
15.25906592,-1.03657568,0.380755481,4.419040246,4.554929261
15.26899892,0.895119693,2.525980205,3.502505565,4.41014291
15.27893192,3.897960945,4.776030303,2.648640171,6.709684027
15.28886592,7.315118212,6.824684168,-0.189640991,10.00615971
15.29879892,8.879569995,8.335790049,-3.531259832,12.68077107
15.30873192,7.814689114,9.283769302,-6.147942631,13.60348988
15.31866592,4.135167574,7.902885007,-7.691428639,11.77766007
15.32859892,-0.787725637,3.212969572,-7.894822281,8.559900934
15.33853192,-2.38244524,-1.084813455,-9.206166226,9.571121258
15.34846592,-1.61125436,-3.539408512,-9.556415613,10.31739466
15.35839892,0.727797085,-4.552438039,-8.364739614,9.5510863
15.36833192,4.396766155,-4.81509672,-6.552103931,9.243742477
15.37826592,6.488856354,-5.444026744,-4.747210547,9.709721518
15.38819892,6.655561641,-5.765283882,-3.002354326,9.303178516
15.39813192,4.387197479,-4.586574669,2.915804717,6.98470372
15.40806592,1.479287819,-2.754938459,8.072196983,8.656693508
15.41799892,-1.059473522,-0.977204221,7.363489888,7.503225677
15.42793192,-3.329024816,-0.057769321,2.221498144,4.002598846
15.43786592,-4.686960837,0.175730465,-3.416194814,5.802488267
15.44779892,-3.714720024,0.360497802,-7.036319461,7.964853739
15.45773192,-2.680382074,0.74953177,-8.089610576,8.555001181
15.46766592,-2.70113355,0.671528159,-7.644055667,8.135026709
15.47759892,-2.10724969,-0.504700665,-6.111459514,6.48422404
15.48753192,-1.212072402,-1.777552974,-3.086091717,3.762017566
15.49746592,-0.578034689,-2.416550149,0.120668989,2.487649438
15.50739892,-0.181615615,-2.737639471,2.473534774,3.69405311
15.51733192,-0.28306751,-3.070358906,3.5945384,4.735814327
15.52726592,-0.777105266,-3.373987273,3.743435993,5.099117153
15.53719892,-1.294417132,-3.862350233,3.576826015,5.420973102
15.54713192,-1.312431527,-4.165024334,2.839106205,5.208687767
15.55706592,-1.136598443,-4.197924278,1.341380507,4.551233451
15.56699892,-0.986118594,-3.451858152,0.019917955,3.590007146
15.57693192,-0.971024884,-2.139834761,-0.414298618,2.386089997
15.58686592,-0.920500921,-0.926510616,-0.086614824,1.308910232
15.59679892,-0.721339201,-0.267711845,0.402650964,0.868405247
15.60673192,-0.854307443,-0.176236834,0.86832088,1.230805338
15.61666492,-0.729481668,-0.449602937,1.044655362,1.351144378
15.62659892,-0.47533244,-1.217688507,1.317515681,1.855950914
15.63653192,-0.287953736,-1.996987867,1.537403734,2.536629286
15.64646492,0.062899961,-2.409404851,1.15881757,2.674331001
15.65639892,0.288507029,-2.666313965,0.197097799,2.689110264
15.66633192,0.388865496,-2.747263404,-1.075323935,2.97573422
15.67626492,0.532760795,-2.367035927,-2.31371736,3.352608114
15.68619892,0.671408876,-1.759265807,-2.312110691,2.981888983
15.69613192,1.005978004,-1.355119709,-0.839056589,1.884769782
15.70606492,1.276414725,-1.217414272,0.301418266,1.789465013
15.71599892,1.089510158,-0.901499151,0.778917099,1.614448807
15.72593192,0.205308167,0.1954923,0.992505362,1.032199387
15.73586492,-0.826938381,1.963514312,1.288029342,2.489625499
15.74579892,-1.56944209,3.972020609,1.559766995,4.546753707
15.75573192,-1.862219633,5.504003389,2.185312358,6.207858356
15.76566492,-1.829473179,6.015604938,3.216188464,7.062460132
15.77559892,-1.761340984,5.939109909,3.917538593,7.329560505
15.78553192,-1.562326467,5.972629073,4.142728609,7.434740234
15.79546492,-1.188819634,6.20561255,4.490254655,7.751471222
15.80539892,-1.028820518,6.310063702,5.029970201,8.134861757
15.81533192,-1.40849514,6.169512425,5.439544269,8.344781841
15.82526492,-2.308974537,6.226982954,3.929014338,7.71646511
15.83519892,-3.271597849,6.72845654,0.885061458,7.533844549
15.84513192,-3.83602636,7.24787874,-0.453343985,8.212938891
15.85506492,-4.158622802,5.415039757,0.900846309,6.886822436
15.86499792,-4.099132353,2.720950933,1.731692677,5.215862302
15.87493192,-3.719930186,1.255647461,0.750543923,3.997229955
15.88486492,-3.66580251,1.687180163,-1.235561252,4.22034318
15.89479792,-3.136302634,3.323274956,-2.674930422,5.294884646
15.90473192,-2.14846072,4.744006857,-3.263242178,6.145749266
15.91466492,-0.855917766,5.827871894,-3.644136822,6.926501224
15.92459792,0.564129718,6.82975195,-3.78543245,7.829000758
15.93453192,1.514116028,7.959180245,-4.121386564,9.089935353
15.94446492,1.741382098,8.730131536,-4.224139684,9.853474733
15.95439792,2.35033774,8.739587068,-4.2667156,10.00546509
15.96433192,3.66451203,7.471528891,-4.8085455,9.611165497
15.97426492,5.802979127,5.810310951,-5.932625932,10.13066289
15.98419792,6.90852447,4.234006861,-7.551301285,11.07595032
15.99413192,5.563914546,2.639078804,-8.724324081,10.67875052
16.00406492,3.371062788,0.953626494,-7.216458142,8.021891044
16.01399792,1.563938106,-0.95458953,-4.812685913,5.149668851
16.02393192,0.456128722,-2.576998916,-2.70280176,3.762195393
16.03386492,0.428432946,-3.77710426,-0.864156785,3.898312242
16.04379792,0.726038827,-4.291463356,0.325485844,4.36459977
16.05373192,0.119443121,-4.696435665,-0.242537827,4.704210796
16.06366492,-0.782417827,-5.568553142,-1.246691281,5.759791741
16.07359792,-0.985437686,-6.434914035,-2.344404863,6.919208064
16.08353192,-1.13592806,-7.387626024,-4.982515953,8.982918015
16.09346471,-1.030581114,-8.182971314,-7.425724143,11.09795008
16.10339771,-1.286978451,-8.80338253,-7.239296197,11.47010318
16.11333071,-1.479373334,-8.756655675,-5.551282221,10.47302718
16.12326471,-1.030308926,-7.932307611,-3.797209911,8.854481556
16.13319771,-0.791823512,-6.939359177,-2.539268003,7.431660127
16.14313071,-0.350807211,-5.961701796,-2.492635288,6.471335618
16.15306471,0.316006046,-5.549062618,-2.918703182,6.277800891
16.16299771,0.266099475,-5.286353651,-3.390417364,6.285799373
16.17293071,0.372517631,-5.098329415,-3.688641735,6.303793307
16.18286471,0.390565939,-5.222193907,-3.757384526,6.445292036
16.19279771,0.43673877,-5.459563381,-3.605251084,6.557088412
16.20273071,0.286140515,-5.689966482,-3.203231619,6.53592287
16.21266471,0.140449535,-6.038678051,-2.772583601,6.646245444
16.22259771,0.049186486,-6.457902364,-2.204104432,6.823855112
16.23253071,-0.067474384,-6.748944599,-1.038136302,6.828655283
16.24246471,0.088790701,-6.752737688,0.51964264,6.773284177
16.25239771,0.413370811,-6.37249033,2.385554936,6.816918717
16.26233071,0.4843487,-4.943983387,4.336495687,6.594145907
16.27226471,0.36069266,-2.060045995,5.944820884,6.301966681
16.28219771,-0.909150817,2.856968864,7.929910253,8.477753412
16.29213071,-2.81643538,11.11228018,10.88766289,15.81000576
16.30206471,-2.535808205,20.17304603,11.4680201,23.34304167
16.31199771,1.330944104,26.31434622,6.520369923,27.14279745
16.32193071,3.301274223,21.74905776,4.358743466,22.42584601
16.33186371,0.987481288,8.964579155,4.799843089,10.21652056
16.34179771,1.122257562,-1.347967395,4.431469088,4.765962275
16.35173071,0.186159559,-7.150293973,3.794763436,8.097011104
16.36166371,-1.628586092,-7.231867894,4.24451957,8.542139795
16.37159771,0.460150436,-3.453722245,4.617609351,5.784656592
16.38153071,3.348203098,1.500469796,2.201831034,4.279010809
16.39146371,4.981260556,6.262804166,-0.367668827,8.010671203
16.40139771,5.459986135,10.33992146,-3.310118721,12.15246108
16.41133071,5.124375837,12.77011316,-6.09529781,15.04950741
16.42126371,2.289810288,10.87936687,-8.050346523,13.72632266
16.43119771,-2.937994316,4.534332721,-12.28187416,13.41776497
16.44113071,-4.676675,-0.426599405,-14.90850775,15.63063913
16.45106371,-2.817154588,-2.179576532,-13.06454152,13.54138689
16.46099771,1.200736844,-1.883553638,-9.085831112,9.35638126
16.47093071,5.789384351,-1.944586875,-4.593620564,7.641972203
16.48086371,7.366898814,-3.370601735,0.070740784,8.101676275
16.49079771,4.89729337,-4.680542348,7.318647591,9.972640652
16.50073071,1.534809617,-4.995289196,11.06466045,12.2366362
16.51066371,-0.734129912,-4.075535038,7.004289583,8.136891614
16.52059771,-2.517260252,-2.707149165,0.827790028,3.788204339
16.53053071,-3.618314348,-1.536589801,-4.417951202,5.913679038
16.54046371,-3.673173218,-0.483772311,-7.766561852,8.604982285
16.55039671,-3.812614693,0.899046244,-9.746714416,10.50441606
16.56033071,-4.257600084,2.030639178,-9.877260522,10.94581789
16.57026371,-4.157561533,1.912643536,-7.442713813,8.737134089
16.58019671,-2.696181835,-0.038967015,-3.750631576,4.619323775
16.59013071,-0.774174276,-2.085002496,-0.623002117,2.309699733
16.60006371,0.785417302,-3.676932685,1.692270749,4.123165604
16.60999671,1.596709118,-4.42931088,3.313648685,5.757477094
16.61993071,1.555881812,-4.521153097,4.020252537,6.246921162
16.62986371,0.88309906,-4.728609969,4.182065459,6.374110738
16.63979671,0.099274831,-4.804540742,3.83629504,6.149034629
16.64973071,-0.652388176,-4.268980812,2.902687658,5.203403035
16.65966371,-0.991957185,-3.409723116,1.903162276,4.028922614
16.66959671,-1.146704332,-2.427600217,1.131493531,2.91349468
16.67953071,-1.291458003,-1.431379681,0.42601293,1.974385621
16.68946371,-1.380442246,-0.819017742,-0.011621926,1.605162274
16.69939671,-2.013141239,-1.028418229,-0.046728645,2.261098244
16.70933071,-2.537397478,-1.782582164,-0.462203613,3.135222052
16.71926371,-2.475832729,-2.503472518,-1.327385781,3.762854683
16.72919671,-2.078317959,-2.778982794,-2.072274277,4.041840124
16.73912971,-1.393194146,-2.665640951,-2.066229426,3.649100663
16.74906371,-0.561804646,-2.098258719,-1.040393839,2.408471185
16.75899671,0.226304641,-1.313140794,0.589497717,1.45707244
16.76892971,0.782931066,-0.540875634,1.780149722,2.018529301
16.77886371,0.935085558,-0.353037924,2.246377462,2.458705448
16.78879671,0.92772881,-0.730626553,2.139941911,2.444145513
16.79872971,0.72658218,-1.219675975,1.911247952,2.380840163
16.80866371,0.166538057,-1.163398279,1.864129772,2.203681077
16.81859671,-0.754725706,0.187462319,1.874915692,2.029793552
16.82852971,-2.109849947,2.293806567,1.747249779,3.572939568
16.83846371,-3.373951313,4.113915576,1.53407316,5.537258283
16.84839671,-4.462952836,5.087545395,1.56406806,6.946033044
16.85832971,-4.803038592,5.46393359,2.06963119,7.56353907
16.86826371,-4.327752638,5.508817402,3.265195148,7.729036901
16.87819671,-3.744071585,5.474682527,4.723197201,8.14240828
16.88812971,-2.915419385,5.395184367,5.757978956,8.412015585
16.89806271,-1.842250953,5.118189483,5.421718447,7.680155147
16.90799671,-1.740912712,5.243593547,3.328577504,6.450230892
16.91792971,-2.067632611,5.871607313,0.962251575,6.298952702
16.92786271,-2.422919082,6.064672433,0.260802044,6.535962539
16.93779671,-2.980583388,5.333020864,0.535380421,6.132831406
16.94772971,-3.077331418,4.444851025,0.240679582,5.411524365
16.95766271,-3.113646428,3.986022352,-0.919444183,5.140870148
16.96759671,-2.647727713,3.778993496,-2.377005429,5.19051141
16.97752971,-1.19000428,3.991670762,-3.390014491,5.370450997
16.98746271,0.454840068,4.629918909,-3.758294352,5.980619118
16.99739671,1.957446949,5.866225535,-3.878702556,7.299899595
17.00732971,2.876710233,7.96927137,-3.879718802,9.31863541
17.01726271,2.94270951,10.64249382,-3.76282419,11.66537868
17.02719671,2.981345572,12.61368962,-3.654737824,13.46665125
17.03712971,3.617185543,11.33948777,-3.879182028,12.51862882
17.04706271,5.356010946,8.302565585,-5.017446635,11.08125531
17.05699671,6.083974092,5.515720625,-6.193516999,10.28579446
17.06692971,5.206455542,3.412795243,-6.850507811,9.256554864
17.07686271,3.859835053,1.973625902,-6.108976786,7.490869323
17.08679571,2.060614052,0.434924671,-4.241472293,4.735543998
17.09673033,0.710437579,-1.236641672,-3.782300681,4.042252172
17.10666333,-0.056459545,-2.731595789,-3.45731185,4.406564247
17.11659633,2.61663E-05,-4.2422298,-2.919798073,5.149925676
17.12653033,0.285536497,-5.750206836,-2.989482558,6.487173168
17.13646333,0.3120276,-6.881855904,-3.144827875,7.572796331
17.14639633,-0.281604391,-8.126213561,-3.328962543,8.786161818
17.15633033,-1.16024049,-8.832346712,-3.995210667,9.763104768
17.16626333,-1.380076357,-9.023433135,-5.021347312,10.41829569
17.17619633,-1.289122771,-9.087758939,-5.929220513,10.9272529
17.18613033,-1.237214114,-9.197701212,-5.990702232,11.0461269
17.19606333,-1.166217806,-8.997715327,-5.08375523,10.40016886
17.20599633,-0.984782505,-8.481098621,-4.00470596,9.43061505
17.21593033,-1.04535849,-7.727167405,-3.594516181,8.586177092
17.22586333,-0.631462453,-6.952008458,-3.63460703,7.870167387
17.23579633,-0.0776022,-6.402125773,-3.846257526,7.4690651
17.24572933,-0.153939939,-6.11699098,-4.20692782,7.42559882
17.25566333,-0.371189728,-6.00990975,-4.473321703,7.501160182
17.26559633,-0.412528373,-6.07305851,-4.193420752,7.391684309
17.27552933,-0.244197121,-6.065378777,-3.567782126,7.041130679
17.28546333,0.093468035,-5.938778372,-2.497636997,6.443292279
17.29539633,0.44099525,-5.803191381,-1.208910667,5.944154441
17.30532933,0.574540978,-5.510223073,0.237589914,5.545187518
17.31526333,0.659124607,-5.134329552,2.021255859,5.557091006
17.32519633,0.454760912,-3.714039116,4.644251312,5.964056027
17.33512933,0.590462069,-0.922162042,7.381368334,7.462146258
17.34506333,0.798862682,3.331409018,8.974525854,9.606174157
17.35499633,-0.674568565,10.25153963,9.672129672,14.11025159
17.36492933,-2.047119702,18.64541416,10.51035376,21.50138843
17.37486333,1.24878897,22.76280357,6.327800646,23.65894675
17.38479633,3.683152661,18.29061681,4.069636366,19.09644514
17.39472933,1.156996455,8.26878739,5.384438354,9.93497167
17.40466233,0.153415736,-0.358421456,7.77103848,7.780812386
17.41459633,-0.607292987,-5.964464021,7.690169733,9.751017709
17.42452933,-3.000540227,-7.417580726,5.901301813,9.942288899
17.43446233,-3.326431283,-5.868460926,5.18626686,8.508897853
17.44439633,-1.020451106,-2.899431344,4.830427535,5.72547402
17.45432933,1.135218793,1.032073908,2.345728088,2.802916075
17.46426233,3.452111337,6.470470954,-0.716857529,7.36871439
17.47419633,5.590353901,12.02670869,-3.206220716,13.64454579
17.48412933,6.645885669,15.1797788,-4.415754696,17.14912156
17.49406233,4.815431181,13.34633288,-7.507305665,16.05218418
17.50399633,-0.040017174,5.080770811,-12.71710698,13.69454795
17.51392933,-2.660286655,-1.21581389,-14.70895632,14.99695717
17.52386233,-1.597381402,-2.298132922,-13.13767382,13.43247987
17.53379533,1.645971326,-1.855659496,-9.414198464,9.73549313
17.54372933,5.096065958,-1.647686899,-5.294233943,7.53084812
17.55366233,6.92687888,-2.561642958,0.31677934,7.392159009
17.56359533,4.992486041,-3.619632896,8.460586588,10.46939275
17.57352933,1.320797869,-4.064506019,12.18692474,12.91455964
17.58346233,-1.2756426,-3.852627482,8.647744267,9.552668919
17.59339533,-3.329164857,-3.373890209,1.864671517,5.093473633
17.60332933,-4.743841381,-2.50823566,-3.918538759,6.64456343
17.61326233,-5.005496095,-1.679068905,-7.325613964,9.029888343
17.62319533,-4.771937837,-0.772822984,-8.870810866,10.10247155
17.63312933,-4.622452015,-0.16332969,-8.579656364,9.74701198
17.64306233,-4.529212899,0.150738881,-7.385535645,8.665023281
17.65299533,-3.096100103,-0.787449794,-5.446227636,6.314056422
17.66292933,-0.714455055,-2.442319413,-3.241701328,4.121164597
17.67286233,1.572421539,-3.506124991,-1.117292984,4.001720325
17.68279533,3.080558204,-3.997888691,1.304933057,5.213041638
17.69272833,2.799076459,-3.75269272,3.884198939,6.083135134
17.70266233,1.150736133,-3.30675131,5.6130984,6.615562827
17.71259533,0.203356074,-2.933089086,5.851417462,6.548545762
17.72252833,0.004095171,-2.441729429,5.279727586,5.817008059
17.73246233,-0.207576448,-1.841598696,4.151120825,4.546028799
17.74239533,-0.241653728,-1.580558524,2.944467768,3.35058983
17.75232833,-0.030443163,-1.727399651,1.427394218,2.241046763
17.76226233,0.436442024,-1.644244058,-0.443402549,1.758017629
17.77219533,0.148350366,-2.129128509,-1.557493597,2.642154868
17.78212833,-1.012190525,-3.096058588,-1.418733323,3.552873862
17.79206233,-1.60113166,-3.775324953,-1.311512929,4.305434618
17.80199533,-1.612374979,-3.89527415,-1.984695851,4.659606356
17.81192833,-1.556816197,-3.673480489,-3.745162675,5.472145744
17.82186133,-1.421231838,-3.134861881,-4.40456254,5.589940082
17.83179533,-0.144302119,-1.714852111,-1.065359037,2.02398882
17.84172833,0.640504149,-0.853349669,2.584818982,2.796379872
17.85166133,0.509966887,-1.169018038,3.991227543,4.190055692
17.86159533,-0.079637469,-1.528186768,2.890727763,3.270780323
17.87152833,-0.808778683,-0.806415238,1.339690661,1.760454363
17.88146133,-1.431712972,0.511279367,0.946854833,1.791017225
17.89139533,-1.676000433,1.749585741,1.66273427,2.938488211
17.90132833,-1.828055375,2.827997079,1.935794417,3.884154214
17.91126133,-3.145500305,3.831992658,1.634828579,5.220249456
17.92119533,-4.710121658,5.29261251,1.591215659,7.261470959
17.93112833,-5.740344338,6.654905584,2.633469863,9.174665387
17.94106133,-5.869114645,7.316516281,4.165446503,10.26298503
17.95099433,-4.994286398,7.374980836,5.15505033,10.29115071
17.96092833,-3.903393593,7.050258054,5.513516225,9.764296253
17.97086133,-2.879488245,6.711382086,5.061660941,8.885635235
17.98079433,-2.543537932,6.236642554,3.458601161,7.571473935
17.99072833,-2.132360996,5.35154952,1.332572553,5.912850015
18.00066133,-2.134009619,4.449293155,-0.346199459,4.946722218
18.01059433,-2.170643594,3.275321941,-1.174359323,4.101042215
18.02052833,-1.876204565,2.796071282,-2.140974383,3.990229253
18.03046133,-1.283031873,3.297221518,-2.750780504,4.481588324
18.04039433,-0.219172061,4.476494987,-3.002838768,5.394820148
18.05032833,1.057931392,5.679852553,-3.014777613,6.516811176
18.06026133,2.192429296,7.034992728,-2.915240461,7.924424007
18.07019433,2.680361901,8.992548142,-2.794135269,9.790681994
18.08012733,2.515289741,11.12330802,-2.509359494,11.6769666
18.09006079,2.384711475,12.03874109,-2.572676654,12.53940992
18.09999379,4.723082888,10.8095628,-2.736578786,12.10962524
18.10992679,8.572070771,8.350143794,-3.486687677,12.46444101
18.11986079,9.442741063,5.746537124,-5.035610425,12.14682757
18.12979379,7.164607372,3.642621224,-5.615304555,9.804689359
18.13972679,4.718527615,2.032889187,-5.107914755,7.244855723
18.14966079,2.362786316,0.876275432,-3.73405852,4.504865242
18.15959379,1.101270151,0.449921025,-2.406615729,2.684590126
18.16952679,0.71774002,0.096711193,-1.808259919,1.947898284
18.17945979,-0.124245877,-0.486667267,-2.456526977,2.507350565
18.18939379,-0.910535,-1.562004724,-3.139631162,3.623012086
18.19932679,-1.754635981,-2.875095232,-4.234357694,5.410610418
18.20925979,-1.997962306,-4.435248728,-5.447695872,7.303470064
18.21919379,-1.53877856,-6.037961183,-6.368791382,8.90990002
18.22912679,-1.500554288,-7.705934996,-7.491357969,10.85143039
18.23905979,-1.263493109,-9.357152444,-9.172214953,13.16367137
18.24899379,-0.791465224,-10.75165666,-10.83393868,15.28393815
18.25892679,-0.767978712,-11.44144099,-9.967402368,15.19359975
18.26885979,-1.360957862,-11.08747395,-5.8160038,12.59405356
18.27879379,-1.489163912,-10.11325648,-2.621319641,10.55305086
18.28872679,-1.090493732,-9.262960816,-2.491835974,9.65405957
18.29865979,-0.812527771,-8.382978249,-3.115472513,8.980016408
18.30859279,-0.851714787,-7.202096211,-3.869102597,8.21982742
18.31852679,-0.868021795,-6.41537381,-4.164282907,7.697514864
18.32845979,-1.132957674,-5.924672549,-4.264431678,7.387199431
18.33839279,-1.263130728,-5.58790801,-3.928271157,6.946332086
18.34832679,-1.261698745,-5.413512465,-3.347219304,6.488595996
18.35825979,-1.107502406,-5.355796353,-2.413288572,5.977882392
18.36819279,-0.762865322,-5.519788533,-0.802549644,5.629752648
18.37812679,-0.098505703,-5.533607842,1.240987907,5.671910623
18.38805979,-0.112565041,-4.538560842,3.266354651,5.592877445
18.39799279,-1.085270707,-2.438398855,5.155687677,5.805576363
18.40792679,-1.032504848,0.511186981,5.813173163,5.926243381
18.41785979,-0.619815238,5.164935048,6.500740235,8.325884252
18.42779279,-1.492675458,13.85984939,9.391470337,16.80842706
18.43772579,-1.248820545,24.00145902,11.26320149,26.54221723
18.44765979,4.885897731,26.88721197,8.244336673,28.54405808
18.45759279,7.912111328,19.03113861,6.091743287,21.49174443
18.46752579,4.097198972,5.582495243,4.796955442,8.423898982
18.47745979,2.286456032,-4.342799571,5.314265335,7.233892821
18.48739279,1.420393932,-9.458195838,5.373770109,10.97052381
18.49732579,0.456471953,-9.243299553,5.468981491,10.74973078
18.50725979,1.46204248,-5.438585325,6.607641955,8.681976201
18.51719279,2.032581623,0.000960113,3.897169232,4.395374501
18.52712579,3.737694612,5.517851935,0.216025967,6.668112042
18.53705879,5.084746917,9.45211181,-2.660581355,11.05783713
18.54699279,3.97585112,11.60508351,-4.072125526,12.92546176
18.55692579,1.457867568,11.44746129,-4.98152485,12.56922184
18.56685879,-3.145592983,7.721047125,-7.448042965,11.17956475
18.57679279,-5.205160968,1.87735442,-11.04394026,12.35260202
18.58672579,-3.75453547,-2.561489176,-11.78792828,12.63380452
18.59665879,-1.217400239,-3.387132398,-9.498269146,10.15735428
18.60659279,2.678772628,-2.138638421,-6.550333394,7.393001059
18.61652579,4.446946083,-2.241836514,-3.720444741,6.216338914
18.62645879,4.50333166,-3.174452793,0.313192073,5.518626265
18.63639279,2.589420741,-3.610768517,5.638553669,7.178860392
18.64632579,-0.276342043,-3.043305008,7.972004358,8.537618156
18.65625879,-2.686962238,-1.266546087,4.753624065,5.605430118
18.66619179,-4.217783176,0.084679377,-0.824983949,4.298542082
18.67612579,-4.638356441,0.161341637,-5.22679859,6.989978905
18.68605879,-4.476667772,0.196648294,-6.908817415,8.234742435
18.69599179,-3.901609316,0.119777874,-6.849386315,7.883590228
18.70592579,-2.960975627,0.211700197,-6.063284304,6.750971055
18.71585879,-1.306021809,-0.762588018,-4.547442763,4.792334414
18.72579179,0.480745499,-2.656576012,-2.366826596,3.590317602
18.73572579,1.506843261,-4.268724704,-0.543433206,4.559375709
18.74565879,1.911150011,-4.935028376,0.827804207,5.356515588
18.75559179,1.200337187,-4.843323569,1.969011279,5.36428914
18.76552479,-0.002842624,-4.323961011,2.754100553,5.126569688
18.77545879,-0.805191928,-3.702851638,2.955843526,4.805877157
18.78539179,-1.162325827,-2.932608445,2.758269033,4.190374885
18.79532479,-1.426473282,-2.224218854,2.415866024,3.58027711
18.80525879,-1.559671247,-1.69369513,1.952631474,3.018931477
18.81519179,-1.407779734,-1.548419303,1.275503436,2.450786636
18.82512479,-0.760670497,-1.374953465,0.450026275,1.634515305
18.83505879,-0.463365747,-1.507994578,-0.106766631,1.581187711
18.84499179,-0.602395213,-2.157693327,0.074935595,2.241458416
18.85492479,-0.669997797,-2.798271005,0.222269112,2.885935069
18.86485779,-0.488348634,-2.980952055,0.038654773,3.020935904
18.87479179,-0.247256384,-2.799746842,-0.329088204,2.829844014
18.88472479,-0.108669772,-2.365897474,-0.973204653,2.560548237
18.89465779,-0.069683462,-1.989402274,-1.733733355,2.639774335
18.90459179,-0.031800959,-1.606197395,-1.905719848,2.492518708
18.91452479,0.480573884,-1.222075088,-0.760766026,1.517624369
18.92445779,1.366776718,-1.321915126,1.058211547,2.176085907
18.93439179,1.783427671,-1.705983054,2.43257035,3.465312532
18.94432479,1.238267636,-1.596355947,2.664468584,3.343807991
18.95425779,0.239161499,-0.477071401,2.329853628,2.390191054
18.96419179,-1.232481378,1.319776799,1.733418775,2.503110424
18.97412479,-2.91080447,3.136789123,1.073773327,4.411940369
18.98405779,-4.56256834,4.599827968,0.922849528,6.544241625
18.99399079,-6.027805738,5.895431208,0.988292589,8.489244571
19.00392479,-6.844467638,6.840581578,2.046984192,9.890927047
19.01385779,-6.666215853,7.242305174,3.681119584,10.50904655
19.02379079,-5.285471306,7.087352205,5.338748211,10.32806858
19.03372479,-3.085147684,6.136363975,6.505485835,9.460150369
19.04365779,-1.692073551,4.99972197,6.980793132,8.751674436
19.05359079,-1.851070893,4.553356637,5.614020506,7.461685222
19.06352479,-2.314621047,4.198914211,2.543067523,5.427296157
19.07345779,-2.857509146,3.895868812,-0.304773398,4.841078304
19.08339079,-3.255021577,3.521785004,-1.774557591,5.113432285
19.09332367,-3.186895376,3.246034407,-2.100662509,5.010571273
19.10325767,-2.748328182,3.471144608,-2.015662705,4.864673558
19.11319067,-1.264795284,3.709382393,-2.152261848,4.471180595
19.12312367,0.54865572,4.527487385,-2.714078701,5.30710734
19.13305767,2.103755979,5.966935054,-3.348291099,7.158292844
