Time (s),Linear Acceleration x (m/s^2),Linear Acceleration y (m/s^2),Linear Acceleration z (m/s^2),Absolute acceleration (m/s^2)
0.027034958,0.040480968,1.519847907,-0.808997369,1.722223305
0.036970958,0.136959515,1.455347125,-0.33233001,1.499078517
0.046906958,0.194431944,1.272995127,-0.260045561,1.313751905
0.056842958,0.32721461,1.156703363,-0.522031812,1.310553045
0.066778958,0.668257665,1.457230952,-1.057550227,1.920547536
0.076714958,0.644422076,1.970525416,-0.901590952,2.260777846
0.086649958,1.281876901,2.40194512,-1.466101617,3.092248809
0.096585958,2.315683486,2.827804121,-2.830548804,4.622864122
0.106521958,2.190975386,3.334863261,-3.934053469,5.603433127
0.116457958,1.524284921,3.396988465,-3.24393818,4.938229447
0.126393958,0.124092096,1.515503718,0.370823985,1.565139226
0.136329958,0.427362759,0.300967007,2.587432687,2.639702252
0.146265958,1.643409222,-0.319022149,2.570165859,3.067298738
0.156201958,1.853889543,0.00029967,3.092541488,3.605651035
0.166137958,1.920376625,1.098987544,2.701555134,3.491993721
0.176073958,1.825723359,1.928516095,2.243422279,3.476403837
0.186009958,2.299999353,2.281968148,1.664074305,3.64232329
0.195944958,2.884194669,2.271367585,1.241396043,3.875403686
0.205880958,3.285934345,2.150162698,0.918612197,4.03291613
0.215816958,3.646174285,1.962126914,0.909742556,4.239358496
0.225752958,2.437988234,1.129281384,1.552548022,3.103138481
0.235688958,-0.060230122,-0.096068986,3.389894623,3.391790453
0.245624958,-3.381203029,-1.9993288,5.540637365,6.791797405
0.255560958,-4.504349661,-4.166337911,5.811968052,8.451420596
0.265496958,-3.153479123,-4.779912562,4.081411489,7.032063312
0.275432958,-0.686324831,-3.82167817,1.164495801,4.053679351
0.285368958,1.572222441,-2.903164499,-2.158932352,3.944773303
0.295303958,2.921775601,-2.377017124,-4.567801598,5.9204556
0.305239958,1.29759948,-2.307172571,-4.967033111,5.628341462
0.315175958,-1.065215634,-2.820075856,-3.747591609,4.809569113
0.325111958,-1.61875546,-4.069270915,-0.981120102,4.487976345
0.335047958,-0.680173852,-5.47239685,1.571337465,5.734009521
0.344983958,0.037603444,-6.110072554,3.362087604,6.974097339
0.354919958,0.099287476,-5.992693793,4.253933587,7.349706652
0.364855958,0.11057728,-5.715250427,4.009206562,6.982123748
0.374791958,0.003547506,-5.549511684,3.226026989,6.419060886
0.384727958,-0.654208122,-5.083598524,2.464059945,5.687051401
0.394663958,-1.223612906,-4.687313131,1.739874101,5.147358043
0.404598958,-2.258151416,-4.527616609,1.300538875,5.223979454
0.414534958,-3.099883837,-4.223764001,0.772018408,5.295797821
0.424470958,-3.283552482,-4.045285052,0.435397711,5.228347657
0.434406958,-3.178383876,-4.152268633,0.27999129,5.23658801
0.444342958,-2.920021144,-4.299216472,0.387632976,5.211530013
0.454278958,-3.009714509,-4.368681394,0.431064924,5.322553477
0.464214958,-3.673151291,-4.163199418,0.055971887,5.552243029
0.474150958,-4.477873176,-3.809481463,-0.158953634,5.881221255
0.484086958,-4.99700243,-3.392879042,-0.167581785,6.042329446
0.494022958,-4.785492268,-2.885641563,0.034533071,5.588296342
0.503957958,-4.066205805,-2.063708106,0.254130517,4.567001545
0.513893958,-4.310982531,-2.456521423,0.381384933,4.976396523
0.523829958,-4.652644113,-3.196065856,0.44177907,5.661899235
0.533765958,-4.070347388,-2.784739378,0.078928933,4.932416349
0.543701958,-3.629992408,-2.470381078,-0.335330216,4.403643253
0.553637958,-3.057007374,-2.73584116,-0.364029228,4.118572351
0.563573958,-2.66332253,-3.225341988,-0.296992947,4.193366505
0.573509958,-1.916848853,-3.142902387,0.175438397,3.685501807
0.583445958,-0.534748921,-2.207992538,0.604874286,2.350970089
0.593381958,0.937454265,-0.686890111,0.662474331,1.337725966
0.603317958,2.471435038,0.667507614,0.730367521,2.66214092
0.613252958,3.418913185,1.223590394,0.949508592,3.75335948
0.623188958,4.191933805,0.940947245,1.141768551,4.44537132
0.633124958,4.776661218,0.546831023,1.545028503,5.050012835
0.643060958,5.158955685,0.945913139,2.68550979,5.892498474
0.652996958,6.38733758,1.832063642,4.019346219,7.765930889
0.662932958,6.883092005,2.235891066,4.007696226,8.27271379
0.672868958,7.014107643,2.274799316,3.230924617,8.050546058
0.682804958,7.694015447,2.60980852,2.717957159,8.567162034
0.692740958,8.221541303,2.841786276,2.722307779,9.114847792
0.702676958,7.974943169,2.687841952,3.058705113,8.954322413
0.712611958,7.545861036,2.389949995,3.727870997,8.749222932
0.722547958,7.661621287,2.388802187,4.819299114,9.361221106
0.732483958,7.345445965,2.471394693,5.307628745,9.393310973
0.742419958,6.552554167,2.231110967,4.760869935,8.401172822
0.752355958,6.142811115,2.178087246,3.884010658,7.587076594
0.762291958,5.730223392,2.779967758,3.420589289,7.229392225
0.772227958,5.539108318,2.36363694,3.237815268,6.837539635
0.782163958,5.174526821,1.712282259,3.171016092,6.305789515
0.792099958,4.977021325,1.413943576,3.263278723,6.117104358
0.802035958,5.014896664,1.155235566,3.571471719,6.264117496
0.811971958,5.386481956,0.880981271,3.913588214,6.716136432
0.821906958,6.785279782,0.675877903,4.337187705,8.08133837
0.831842958,7.709211191,1.975293235,3.596723212,8.733277645
0.841778958,5.344439306,3.527444232,2.116019052,6.744140489
0.851714958,2.50341463,4.131506925,1.723752158,5.129108673
0.861650958,-0.041997042,4.253445052,0.413651916,4.273718109
0.871586958,-0.706557074,2.437047271,-0.791361874,2.657945807
0.881522958,-0.423210944,0.277862319,-1.532785895,1.614232812
0.891458958,-0.684614228,-0.754160426,-1.556484368,1.860133914
0.901394958,-0.359172823,-1.091336901,-1.445382008,1.846388501
0.911330958,0.649102918,-1.148969397,-1.114697405,1.727430339
0.921265958,1.641294723,-1.564571944,-0.554268681,2.334298076
0.931201958,1.248061284,-1.608123176,0.205869646,2.04599595
0.941137958,0.796241083,0.12206852,1.063931878,1.334485529
0.951073958,-0.629117135,0.249163892,1.851786592,1.971543709
0.961009958,-1.159354929,-1.351083376,1.897483167,2.601917084
0.970945958,-2.275469114,-0.943681549,0.981367731,2.651674411
0.980881958,-3.647957978,0.055020837,0.424436813,3.672978533
0.990817958,-2.903413298,1.022062598,0.209859493,3.085200437
1.000753958,-2.118704093,2.101530236,-0.131617316,2.987082102
1.010689958,-1.44816002,2.920005649,-0.712236475,3.336297533
1.020624958,-0.340252987,3.635032707,-1.421768028,3.917991731
1.030560958,-0.293955903,4.213087862,-1.379413721,4.442893384
1.040496958,-1.473567342,4.329186668,-1.533703031,4.823432689
1.050432958,-2.73277108,4.031340612,-2.204992039,5.34618881
1.060368958,-4.133273953,3.835325571,-2.647758704,6.229309911
1.070304958,-5.530412339,3.745820487,-2.996548041,7.320924253
1.080240958,-6.448498287,3.240968379,-3.453666111,8.000925934
1.090176958,-7.364120218,3.019646004,-3.269207507,8.604431782
1.100112958,-8.297450441,3.250462211,-3.502122864,9.574865689
1.110048958,-8.741537699,3.384406427,-4.368485219,10.34177699
1.119983958,-8.91175307,3.225551318,-5.514112641,10.96489682
1.129919958,-8.612075667,2.912205463,-6.633924605,11.25423225
1.139855958,-7.925583898,2.420798443,-7.421390187,11.1243956
1.149791958,-6.92828572,2.056552868,-7.535419663,10.44093397
1.159727958,-5.784714764,1.363537946,-7.048935998,9.220068294
1.169663958,-4.659345607,0.735816541,-5.87840704,7.537015111
1.179599958,-3.201599661,0.200285847,-4.095895627,5.202568193
1.189535958,-1.788375,-0.505633588,-2.341920381,2.989739376
1.199471958,-0.482363132,-0.761475585,-0.500647667,1.031100065
1.209407958,1.145327459,-0.70145684,1.400982053,1.940764643
1.219343958,3.196121405,-0.549985888,3.181329119,4.542965053
1.229278958,5.532179952,-0.103853567,5.235989828,7.617833686
1.239214958,7.246357294,0.451060355,6.640396303,9.839106288
1.249150958,7.788608193,0.922678058,6.507149953,10.19101334
1.259086958,7.206569331,0.845241627,5.28924276,8.979151625
1.269022958,5.783795582,0.275583951,3.78647033,6.918496615
1.278958958,4.327400343,-0.030481535,2.681752369,5.091082264
1.288894958,3.00747561,-0.2625508,2.442411214,3.883196493
1.298830958,2.231327314,-0.657450403,2.857265317,3.684430446
1.308766958,2.251093826,-0.68404237,3.548367616,4.257493408
1.318702958,2.911057947,-0.696715041,3.865854469,4.889222944
1.328637958,3.363843523,-1.124815426,3.355641634,4.882722987
1.338573958,3.457372661,-1.610245715,2.385664571,4.498634507
1.348509958,3.051473569,-1.78714767,1.087175145,3.699640189
1.358445958,2.697683693,-1.683580032,-1.939663519,3.72481323
1.368381958,2.078783982,-1.34777356,-3.621537918,4.387866601
1.378317958,1.201185325,-1.026996771,-1.194876764,1.981236744
1.388253958,1.164993399,-0.177629056,-0.863649832,1.461045083
1.398189958,0.009104115,-1.599557151,0.317197708,1.630730005
1.408125958,-0.185268443,-2.185633662,1.781260108,2.825633818
1.418061958,0.607135697,-3.099454943,2.799705327,4.220614246
1.427996958,1.022685619,-4.190273196,3.320625583,5.443420762
1.437932958,1.47256279,-4.540769336,2.342931072,5.317551442
1.447868958,1.073680941,-4.757424463,1.082643845,4.995797832
1.457804958,0.616602924,-4.220201585,0.898677577,4.35866057
1.467740958,0.923484097,-3.445748689,1.091515533,3.730604919
1.477676958,1.246190175,-3.216175893,1.579647528,3.79368734
1.487612958,1.296948684,-3.097931744,2.040119854,3.92954781
1.497548958,0.88059594,-2.868416835,2.487808412,3.897749997
1.507484958,0.48378342,-2.414035554,2.537663527,3.535724852
1.517420958,0.119590763,-1.788874937,1.918898887,2.62612803
1.527355958,-0.605903689,-1.062146577,1.099962713,1.644746972
1.537291958,-1.465939064,-0.385781016,0.01684232,1.515944589
1.547227958,-2.614678373,0.031075905,-1.415086999,2.973210373
1.557163958,-3.608240181,0.425370759,-2.668069007,4.50765235
1.567099958,-3.586092097,0.99696401,-3.435685338,5.065365486
1.577035958,-3.12863635,1.672920265,-3.756047267,5.166712562
1.586971958,-2.607840055,2.437653042,-3.60207283,5.071282952
1.596907958,-2.706331725,3.087036919,-3.249737449,5.235916522
1.606843708,-3.232349584,3.349959894,-3.034557574,5.556874553
1.616779708,-3.431251395,3.404452728,-2.622087673,5.499011573
1.626714708,-3.319020522,3.283154286,-2.017729111,5.085885376
1.636650708,-3.346435778,3.118034179,-1.498403975,4.813105445
1.646586708,-3.297002832,3.010176439,-1.14087422,4.607926198
1.656522708,-3.115640913,2.923428317,-0.984727834,4.38444299
1.666458708,-2.964952319,2.85792196,-0.856194632,4.206153757
1.676394708,-3.0647754,2.659098794,-0.951866482,4.167697739
1.686330708,-2.950445961,2.145628767,-0.99117205,3.780380432
1.696266708,-2.36559108,1.741581195,-0.708889529,3.021862105
1.706202708,-2.124487574,1.597392073,-0.520034988,2.708421178
1.716138708,-2.259981594,1.301150055,-0.573845452,2.670169821
1.726074708,-2.098661007,0.644916019,-0.693538833,2.302453215
1.736009708,-1.682936254,0.038939971,-0.588572834,1.783313976
1.745945708,-0.877370031,-0.211616582,0.029350391,0.903006752
1.755881708,-0.358799186,-0.129960946,0.605115776,0.715396258
1.765817708,0.24316231,0.079292191,0.722205393,0.766156505
1.775753708,1.348317643,-0.048626322,0.584428327,1.470333791
1.785689708,2.190068775,-0.365667325,0.861777261,2.381758569
1.795625708,2.746443039,-0.682075952,1.345858889,3.133610238
1.805561708,3.304624677,-0.81936419,1.31708094,3.650562167
1.815497708,3.562367604,-0.806634217,1.304858798,3.878630969
1.825432708,3.646312571,-0.668924687,1.60307966,4.0389256
1.835368708,3.943786159,-0.505300004,1.869008689,4.393400829
1.845304708,4.468983069,-0.526222512,1.941145496,4.900690323
1.855240708,5.044187121,-0.412269634,2.345314105,5.578018306
1.865176708,5.224661433,-0.207159542,2.783250969,5.923384853
1.875112708,4.949522454,-0.178188342,3.036847636,5.809644324
1.885048708,4.440392523,-0.144303435,3.764716349,5.823315072
1.894984708,4.25983869,-0.289056375,4.280058654,6.045550541
1.904920708,4.485834745,-0.734657185,4.009100143,6.060966795
1.914856708,5.25958919,-1.473564564,3.295611194,6.379320036
1.924791708,5.687310092,-2.256305742,2.568231308,6.635678092
1.934727708,4.985747709,-2.505804387,1.56434478,5.795162676
1.944663708,3.470571581,-2.287030668,0.506551016,4.187119571
1.954599708,1.833244779,-1.771876497,-0.657599215,2.63301528
1.964535708,0.514127546,-1.394783712,-1.84389636,2.368481058
1.974471708,-0.463342724,-1.256189937,-2.768245845,3.075042226
1.984407708,-0.773987165,-1.240472036,-3.085535939,3.414433926
1.994343708,-0.249591908,-1.640898428,-2.911879189,3.351698701
2.004279708,0.564547502,-2.441684113,-2.409987526,3.476862819
2.014215708,1.297647427,-3.298228408,-1.699624207,3.930766073
2.024151708,2.050994505,-4.027999221,-0.895977625,4.608050791
2.034086708,2.299605836,-4.729903373,0.00283473,5.25929472
2.044022708,1.675639513,-5.014120154,0.787569516,5.345038301
2.053958708,0.382145364,-4.681950358,1.352944984,4.888471577
2.063894708,-1.178919128,-3.890681747,1.613152951,4.373730354
2.073830708,-2.61513738,-2.944889937,1.642676127,4.267283107
2.083766708,-3.635316297,-2.189780946,1.586481315,4.530738145
2.093702708,-4.283232231,-1.672521778,1.532790865,4.846942879
2.103638708,-4.713902467,-1.108855086,1.344616064,5.025776401
2.113574708,-4.976796792,-0.700319922,1.100341321,5.14487175
2.123509708,-5.064316746,-0.384174786,0.720301978,5.129690957
2.133445708,-5.080492483,-0.162866225,0.217195118,5.087740461
2.143381708,-5.11172714,-0.027668074,-0.411774521,5.12836018
2.153317708,-5.280807567,0.079201121,-1.082102101,5.391117355
2.163253708,-5.473794335,0.228939689,-1.682104195,5.730995753
2.173189708,-5.896895351,0.482110093,-2.09321798,6.275935503
2.183125708,-6.190750097,0.792836834,-2.431900844,6.69836687
2.193061708,-6.055999843,0.980603062,-2.755206554,6.725167627
2.202997708,-5.644692661,1.090837402,-3.016930557,6.492638251
2.212933708,-4.667888973,1.64814956,-3.254072282,5.924067087
2.222868708,-4.246678947,1.802566047,-3.075824591,5.544747365
2.232804708,-4.486785502,1.64249501,-2.627260412,5.452662769
2.242740708,-4.200163177,1.308351047,-2.098784091,4.874222793
2.252676708,-3.079363618,1.205239931,-1.816594248,3.772942915
2.262612708,-2.067429859,1.247767315,-1.567621852,2.878997701
2.272548708,-1.342390321,1.215860083,-1.250089975,2.200693632
2.282484708,-0.756950718,1.023017302,-0.87551851,1.544691377
2.292420708,0.109772118,0.693435191,0.254251262,0.746690021
2.302356708,1.255924619,0.628329807,0.518925479,1.497140157
2.312292708,1.818336718,1.046235426,0.28486933,2.117098846
2.322227708,1.717221987,1.344796158,0.551019091,2.249655551
2.332163708,1.526849509,1.298443233,0.727941804,2.132398538
2.342099708,-2.409997174,1.168234072,-2.681989473,3.790240726
2.352035708,-1.984159661,1.912863683,-7.384301298,7.881867969
2.361971708,4.937989406,2.403486592,-3.033825502,6.274120205
2.371907708,7.421916436,0.433909156,1.940349982,7.683624066
2.381843708,5.71872952,-1.022907959,3.663558349,6.86817791
2.391779708,5.984101894,0.239437049,2.744462003,6.587782424
2.401715708,5.377006543,1.825065548,1.220666494,5.808019482
2.411651708,5.179490522,2.82038342,0.832131878,5.956016132
2.421586708,5.625175239,3.253074747,0.567310019,6.522800966
2.431522708,5.979442248,3.713336573,0.276880572,7.044094048
2.441458708,6.203230979,3.888178846,0.180842686,7.323299352
2.451394708,6.249018186,2.865409319,0.112652164,6.87557193
2.461330708,5.108373177,0.370276393,0.950335388,5.209195569
2.471266708,3.588393561,-0.820536703,1.713217814,4.06016799
2.481202708,2.052340534,-0.940262829,2.009364084,3.022207782
2.491138708,0.378676211,-1.118173428,2.031055792,2.349232879
2.501074708,-0.359268132,-1.20342861,1.974338385,2.339941467
2.511009708,0.267541106,-1.300771156,1.834915036,2.265060051
2.520945708,1.315010734,-1.53124223,1.718434407,2.650843792
2.530881708,1.864753085,-1.802277925,1.719516435,3.111630852
2.540817708,2.093072823,-2.080120071,1.618677985,3.365705241
2.550753708,2.303614687,-2.532853315,1.580036952,3.770743071
2.560689708,2.290584751,-3.066492434,1.522709681,4.119320226
2.570625708,2.328891615,-3.4039563,1.475720871,4.380457366
2.580561708,1.984540315,-3.552926105,1.575241066,4.363836453
2.590497708,1.831648489,-3.562255338,1.738880951,4.366727177
2.600433958,1.26622332,-3.436619139,2.020344863,4.182758177
2.610368958,0.248856329,-2.803242892,2.076897378,3.497656773
2.620304958,-0.617730852,-1.996428581,2.10454009,2.965873813
2.630240958,-1.143531194,-1.244634962,2.100303198,2.695932733
2.640176958,-1.552793605,-0.623821165,2.030292731,2.631047206
2.650112958,-2.040087694,-0.115151703,1.806416877,2.727335631
2.660048958,-2.548307798,0.336249545,1.490115839,2.971090979
2.669984958,-2.896788987,0.600434788,1.123951208,3.164676079
2.679920958,-3.079130899,0.576332126,0.820932705,3.238384832
2.689856958,-3.448059216,0.573284411,0.434091443,3.522243994
2.699791958,-4.195584222,0.921626144,0.041925998,4.295821168
2.709727958,-4.961161922,1.130515438,-0.106001541,5.089442906
2.719663958,-5.229118765,1.025411152,-0.672734732,5.371007644
2.729599958,-5.172031814,0.892880794,-1.314994069,5.410763218
2.739535958,-5.099081367,0.730047386,-1.798779828,5.456116645
2.749471958,-5.207239653,0.692600063,-2.205304865,5.697228204
2.759407958,-5.326717565,0.587637864,-2.52129717,5.922514474
2.769343958,-4.759697276,0.234735011,-1.928742675,5.140998637
2.779279958,-3.685267307,0.006044559,-1.183054864,3.870510363
2.789215958,-4.532096161,-0.041471377,-2.709472849,5.280422199
2.799150958,-4.679587498,0.02674458,-3.473578804,5.827950251
2.809086958,-4.535033802,0.129680718,-3.260532578,5.586986788
2.819022958,-4.149320467,0.240231101,-3.22750575,5.262258516
2.828958958,-3.676518118,0.084220809,-3.208803723,4.880604466
2.838894958,-3.1517463,-0.084456744,-2.978412901,4.337231962
2.848830958,-2.34688876,-0.325321976,-2.573986723,3.498446639
2.858766958,-1.592047718,-0.624193633,-2.08147224,2.69383747
2.868702958,-0.864578077,-0.905357729,-1.495173973,1.950054634
2.878638958,-0.130764792,-1.275778255,-0.912891281,1.574191881
2.888573958,0.672778294,-1.733984493,-0.470840608,1.91859942
2.898509958,1.665433783,-2.309906437,-0.182407693,2.853525889
2.908445958,2.662708572,-2.901471145,0.133013046,3.940335546
2.918381958,3.478916143,-3.39001069,0.554058766,4.888968309
2.928317958,3.865943931,-3.507632988,0.957073281,5.307070842
2.938253958,3.926653233,-3.268868954,1.275300392,5.265975782
2.948189958,3.883935229,-2.955920125,1.535136768,5.116547815
2.958125958,3.756432599,-2.545646145,1.741370111,4.860398135
2.968061958,3.219882735,-1.812176238,1.876612116,4.144068119
2.977996958,2.876199186,-1.561113901,1.693909723,3.684959772
2.987932958,3.460408536,-1.586208104,1.175061574,3.98387413
2.997868958,4.88208944,-0.667675137,0.538254035,4.956844237
3.007804958,5.287651148,-0.656988473,0.294968641,5.336468403
3.017740958,4.198337091,-1.99298077,-0.050863175,4.647643892
3.027676958,2.966471425,-1.926989972,-0.48334254,3.57027493
3.037612958,2.241913698,-1.159258743,-0.12534223,2.527007823
3.047548958,1.499354147,-1.09548053,-0.033900548,1.857226346
3.057484958,1.13893002,-1.291050013,-0.479447125,1.787132137
3.067420958,1.599034556,-1.918228504,-0.805982398,2.624141713
3.077355958,2.137143288,-3.037921477,-0.787456373,3.796898191
3.087291958,1.905752592,-3.846403998,-0.132162277,4.294669199
3.097227958,1.652137799,-4.26767162,0.849940669,4.654565448
3.107163958,1.217679151,-4.537139092,1.850413374,5.049000228
3.117099958,0.485774982,-4.38732758,2.624161388,5.135254971
3.127035958,-0.439134666,-3.716486468,3.039947537,4.821451229
3.136971958,-1.094371898,-2.673988436,3.211446372,4.319867105
3.146907958,-1.08975903,-1.575657388,3.144264788,3.68193862
3.156843958,-1.076205184,-0.565074628,2.859832245,3.107437434
3.166778958,-1.122411636,0.34378646,2.289677848,2.573056871
3.176714958,-1.31049259,1.161901684,1.477919424,2.291648354
3.186650958,-1.650229853,1.876059846,0.593275384,2.568041042
3.196586958,-2.008147278,2.53715248,-0.212056365,3.242648007
3.206522958,-2.166148401,3.056733139,-1.001994077,3.878119197
3.216458958,-2.284386118,3.42264137,-1.75545006,4.473756676
3.226394958,-2.370722596,3.794721629,-2.369482548,5.063070749
3.236330958,-2.343221971,4.090405969,-2.926813855,5.548725037
3.246266958,-2.501876813,4.281638572,-3.361127492,5.990742396
3.256201958,-2.62721305,4.507903014,-3.511383977,6.289137892
3.266137958,-2.71587438,4.752402582,-3.487453662,6.49027249
3.276073958,-2.801248407,4.815406331,-3.412972999,6.533262237
3.286009958,-2.703923256,4.748950678,-3.184402415,6.324883577
3.295945958,-2.623018842,4.59112848,-2.749177197,5.959585877
3.305881958,-2.510222543,4.388693489,-2.124922168,5.484263121
3.315817958,-2.280998241,4.114890015,-1.491503091,4.93557031
3.325753958,-1.820891951,3.755322797,-0.959670907,4.282413462
3.335689958,-1.470249631,3.316433714,-0.460658267,3.656852827
3.345625958,-1.279499424,2.814690571,-0.066377738,3.092573005
3.355560958,-1.042721688,2.350636826,0.22355952,2.581228557
3.365496958,-0.782883704,1.937370826,0.482107462,2.14446735
3.375432958,-0.631392286,1.573088706,0.773468371,1.863200906
3.385368958,-0.57127063,1.382277395,1.046407627,1.825379372
3.395304958,-0.361283083,1.324901007,1.217963911,1.835571908
3.405240958,0.114867382,1.170075215,1.346336607,1.787426301
3.415176958,0.647164566,0.979236714,1.509358149,1.912037797
3.425112958,1.265124629,0.827169638,1.4522845,2.09615844
3.435048958,1.898568118,0.676546825,1.172050404,2.33151853
3.444983958,2.308995879,0.526382141,0.855404819,2.517986802
3.454919958,2.695780424,0.380892013,0.644567671,2.797816703
3.464855958,3.086717076,0.276515705,0.501401666,3.139376829
3.474791958,3.529146649,0.177490185,0.43350906,3.560099569
3.484727958,3.965546572,0.17433415,0.424931049,3.992056914
3.494663958,4.318324295,0.334397878,0.499280735,4.359934393
3.504599958,4.535293418,0.551734206,0.520740747,4.598311424
3.514535958,4.437878805,0.822636292,0.394936733,4.530725525
3.524471958,4.329522883,1.223120863,0.193978017,4.503156727
3.534407958,4.383784459,1.516675939,-0.160094864,4.641497868
3.544342958,4.647824253,1.32867363,-0.706470097,4.885360161
3.554278958,5.203232557,0.430117675,-1.320821697,5.385461931
3.564214958,5.448237324,-0.898554493,-1.767305582,5.797763288
3.574150958,4.906283464,-1.817623065,-1.683315299,5.496264316
3.584086958,3.440150857,-2.019907199,-1.203513833,4.166906353
3.594022958,1.929289974,-1.509741726,-0.572346664,2.515762427
3.603958208,1.395650269,-0.829489813,-0.187921471,1.634382912
3.613894208,1.54161256,-0.862562542,-0.25760274,1.785200995
3.623830208,2.172781482,-1.557903487,-0.718831695,2.768530594
3.633765208,2.481240234,-2.366192173,-1.05619265,3.587612216
3.643701208,2.31594471,-2.987979823,-1.118576447,3.942440436
3.653637208,2.248877732,-3.485340771,-1.017680987,4.270916287
3.663573208,2.38661065,-3.895568557,-0.659533766,4.615880151
3.673509208,2.395932866,-4.284889039,-0.137138696,4.911168435
3.683445208,1.772876371,-4.14490465,0.369980085,4.523296414
3.693381208,1.121841533,-3.457756823,0.769121843,3.715664016
3.703317208,0.533327463,-2.544855894,1.078439551,2.814917685
3.713253208,-0.25347329,-1.728658556,1.117050909,2.073719327
3.723188208,-0.686054397,-1.200858174,1.036327758,1.72820896
3.733124208,-1.261249094,-0.619237679,0.755238653,1.595177107
3.743060208,-1.941757407,0.096730781,0.197711318,1.954192528
3.752996208,-2.516714707,0.811628031,-0.422366679,2.677869786
3.762932208,-2.807369272,1.21432285,-0.787803039,3.158565472
3.772868208,-2.780236437,1.356097656,-0.570244444,3.145456124
3.782804208,-2.867141265,1.575004839,-0.022838493,3.271339308
3.792740208,-3.261719563,1.854423248,0.294648213,3.763577774
3.802676208,-3.660236546,2.051569579,0.236736147,4.202655507
3.812611208,-3.901858699,2.104202414,0.187068216,4.437021932
3.822547208,-4.014612313,2.07898805,0.173471028,4.524311609
3.832483208,-4.129294923,2.017249054,0.110070326,4.597008352
3.842419208,-4.267517838,1.939188141,-0.011836007,4.687461919
3.852355208,-4.298682328,1.812507775,-0.185443348,4.6688589
3.862291208,-4.304896165,1.589375541,-0.340421533,4.601535876
3.872227208,-4.335254908,1.339474899,-0.464344352,4.561166934
3.882163208,-4.301600089,1.140423107,-0.486852697,4.476757056
3.892099208,-4.176993585,0.9440853,-0.437458343,4.304641943
3.902034208,-3.932023315,0.689064836,-0.313542906,4.004238611
3.911970208,-3.53146507,0.401529907,-0.189013585,3.559241203
3.921906208,-2.93311306,0.044654163,-0.046789493,2.933826081
3.931842208,-2.256320652,-0.375319324,0.192088051,2.295374763
3.941778208,-1.397245975,-0.622704055,0.357203992,1.57087598
3.951714208,-0.554182727,-0.71136904,0.460327169,1.012455189
3.961650208,0.208695313,-0.870807408,0.516770999,1.033881783
3.971586208,0.980453519,-1.149479859,0.549467533,1.607640389
3.981522208,1.723113057,-1.535661848,0.576317289,2.378974051
3.991457208,2.307247562,-1.931600063,0.705352475,3.090629746
4.001393208,2.6043633,-2.268416787,0.903399569,3.569951499
4.011329208,2.733559869,-2.506256962,1.049651735,3.854275844
4.021265208,2.95827129,-2.633622183,1.141011556,4.121800844
4.031201208,3.251747137,-2.728297667,1.25698355,4.426903573
4.041137208,3.42422655,-2.715293167,1.423979445,4.59628784
4.051073208,3.639369003,-2.411540985,1.63452657,4.661782253
4.061009208,3.930840424,-1.949618842,1.716437291,4.711547202
4.070944208,4.259711806,-1.798582339,1.660218067,4.912877683
4.080880208,4.625258678,-2.103592841,1.343113037,5.255670586
4.090816208,4.96228985,-2.691602588,0.831786892,5.706217178
4.100752208,4.936463283,-3.305793536,0.55759275,5.967231378
4.110688208,4.312950704,-3.620046878,0.56915752,5.659525021
4.120624208,3.056272379,-3.355956214,0.804255204,4.609779756
4.130560208,1.444115501,-2.60361778,1.035726152,3.15230452
4.140496208,-0.069918666,-1.677394701,1.139010785,2.028764937
4.150432208,-1.193283398,-0.859077748,1.183993927,1.887798046
4.160367208,-1.587338955,-0.443561739,1.074626947,1.967540356
4.170303208,-1.426736407,-0.62752947,0.809455717,1.756299681
4.180239208,-1.109508585,-1.091190428,0.570971838,1.657623205
4.190175208,-0.755480728,-1.533816613,0.454412198,1.769133963
4.200111208,-0.39447071,-1.8896593,0.371397597,1.965796426
4.210047208,-0.009361977,-2.169045696,0.165937548,2.175403905
4.219983208,0.353657729,-2.26548704,-0.141359362,2.297278343
4.229919208,0.45458418,-2.089549437,-0.41967696,2.179218295
4.239854208,0.094739512,-1.486009486,-0.735530466,1.660784403
4.249790208,-0.355962701,-0.624188809,-1.21840194,1.414505003
4.259726208,-0.712149936,-0.025949651,-1.692533873,1.836437265
4.269662208,-1.156999671,0.322127788,-2.104326959,2.42293345
4.279598208,-1.734471273,0.509134024,-2.337098182,2.954595737
4.289534208,-2.358094949,0.63477417,-2.266487206,3.331743431
4.299470208,-2.893501682,0.76400129,-1.990295729,3.594068314
4.309406208,-3.289554648,0.979802432,-1.664457883,3.814656293
4.319342208,-3.409824858,1.177064391,-1.479872979,3.899026824
4.329277208,-3.452143496,1.431107785,-1.416401014,3.996442924
4.339213208,-3.450447804,1.755095865,-1.40694519,4.118913244
4.349149208,-3.458687115,2.029954762,-1.437998144,4.26040744
4.359085208,-3.303115511,2.246319867,-1.598127799,4.302387417
4.369021208,-3.122365796,2.382684245,-1.810841903,4.324985639
4.378957208,-3.035473248,2.431119071,-2.009396244,4.377454859
4.388893208,-2.989465016,2.428360647,-2.129320444,4.400891054
4.398829208,-2.987498598,2.328401034,-2.140199043,4.350523093
4.408764208,-3.004367815,2.170846639,-2.021052668,4.221783389
4.418700208,-2.955664601,1.951915775,-1.719564967,3.937363598
4.428636208,-2.85408794,1.681381479,-1.332435875,3.570468738
4.438572208,-2.773408059,1.520793841,-1.018591983,3.322970929
4.448508208,-2.710645216,1.448484541,-0.756884059,3.165213804
4.458444208,-2.505306205,1.396279722,-0.522641823,2.915357734
4.468380208,-2.124078854,1.242350893,-0.309294977,2.48008268
4.478316208,-1.752361414,1.152949305,-0.168084792,2.104356225
4.488251208,-1.506551485,1.158950594,-0.030069745,1.900991333
4.498187208,-1.123624933,1.181535757,0.088702846,1.632920063
4.508123208,-0.632198617,1.130972252,0.143482486,1.30359524
4.518059208,-0.172348436,1.067195502,0.145772256,1.090806936
4.527995208,0.416275561,1.018941062,0.110218773,1.106198178
4.537931208,1.027939927,0.952744441,0.063869063,1.403018789
4.547867208,1.819517856,0.793709823,-0.003889056,1.985103432
4.557803208,2.570552945,0.550679076,0.046367689,2.629285046
4.567739208,3.189592988,0.46958258,0.059916346,3.22453116
4.577674208,3.854947073,0.429203171,-0.001868258,3.878767302
4.587610208,4.525809819,0.39568313,0.042840137,4.543275793
4.597546208,4.972054115,0.429206679,0.150261675,4.992806732
4.607482333,5.110326732,0.496741435,0.34706492,5.146129168
4.617418333,4.86623296,0.775024461,0.533862995,4.956399483
4.627354333,4.338995957,1.188906173,0.70435092,4.553734074
4.637290333,4.017171639,1.347807474,0.730648187,4.299779034
4.647226333,3.947504404,1.265583343,0.657638756,4.197258742
4.657161333,4.26901531,0.707378023,0.696065415,4.38285095
4.667097333,4.54169378,-0.019351068,0.927730418,4.635519452
4.677033333,4.182855418,-0.358062144,1.148434669,4.352400503
4.686969333,3.503821188,-0.347272862,1.334062716,3.765246963
4.696905333,2.891697232,-0.167011682,1.545886289,3.283225579
4.706841333,2.637471989,0.107402534,1.721096352,3.151184928
4.716777333,2.806744205,0.298575788,1.757914515,3.325240439
4.726713333,3.096418777,0.283989324,1.599112324,3.496515323
4.736648333,3.281297795,0.043566434,1.234348394,3.506056077
4.746584333,3.319432751,-0.385913894,0.944074921,3.472584164
4.756520333,3.267105433,-0.757745354,0.905784722,3.473989334
4.766456333,3.048652287,-1.032513034,0.81564346,3.320487643
4.776392333,2.694741374,-1.20633029,0.703224088,3.035026846
4.786328333,2.277615042,-1.185553087,0.642059362,2.646753979
4.796264333,1.837775202,-0.956399243,0.581597983,2.151830249
4.806200333,1.391916822,-0.656604019,0.58565595,1.646679741
4.816135333,0.804614296,-0.292229513,0.646275204,1.072601461
4.826071333,0.196683378,0.072411919,0.701644974,0.732279665
4.836007333,-0.423678136,0.405175792,0.875338635,1.053512369
4.845943333,-1.056316465,0.755144805,1.083056366,1.690875289
4.855879333,-1.629743548,1.043399088,1.28540862,2.323148942
4.865815333,-2.144066391,1.251826891,1.455861973,2.878128791
4.875751333,-2.615143227,1.425137486,1.556041149,3.360246272
4.885687333,-2.965381504,1.555088637,1.516706929,3.675892823
4.895622333,-3.261381594,1.619463266,1.373585216,3.891787188
4.905558333,-3.495081355,1.621574549,1.134221331,4.016410801
4.915494333,-3.695102323,1.542120975,0.958791412,4.117183413
4.925430333,-3.886194009,1.411769727,0.8253111,4.216246678
4.935366333,-4.062745423,1.181723014,0.530228366,4.264212914
4.945302333,-4.285965804,0.858905401,0.233886872,4.377433544
4.955238333,-4.457665783,0.555734286,0.01417599,4.492196099
4.965174333,-4.510288385,0.277106566,-0.155008371,4.521450759
4.975110333,-4.488695202,-0.010889124,-0.314839307,4.499736324
4.985045333,-4.414275935,-0.327630895,-0.50580652,4.455223257
4.994981333,-4.327962846,-0.702731972,-0.671164463,4.435713737
5.004917333,-4.206247205,-1.036475985,-0.759960133,4.398219801
5.014853333,-4.020399302,-1.368721502,-0.830501089,4.327440486
5.024789333,-3.75498015,-1.645313075,-0.802642615,4.177459301
5.034725333,-3.319090104,-1.924586766,-0.642349384,3.89011646
5.044661333,-2.793645272,-2.142905719,-0.348484844,3.538070168
5.054596333,-2.352076995,-2.204558322,-0.035551802,3.223911834
5.064532333,-1.882319875,-2.158042113,0.267934039,2.876119352
5.074468333,-1.251736844,-2.102982392,0.474368161,2.492870879
5.084404333,-0.511338424,-2.132752321,0.597539758,2.273137306
5.094340333,0.31157181,-2.28567923,0.6886768,2.407422329
5.104276333,1.124580368,-2.47361605,0.766088746,2.823180712
5.114212333,1.788372661,-2.663791476,0.832207891,3.314608843
5.124148333,2.249670029,-2.75643827,0.893413475,3.668399489
5.134083333,2.647138606,-2.726478598,0.956313874,3.918617687
5.144019333,2.900259894,-2.5696706,1.047844507,4.014061853
5.153955333,3.019909129,-2.282445427,1.151745875,3.956757111
5.163891333,2.942814175,-1.912791178,1.205895769,3.711214083
5.173827333,2.692399564,-1.460998021,1.245474476,3.306771431
5.183763333,2.408100337,-1.034706033,1.309747655,2.93001753
5.193699333,2.133796926,-0.718283373,1.327063015,2.613449171
5.203635333,2.275381406,-0.569710009,1.251222873,2.658474885
5.213570333,3.02512543,-0.93346851,1.094195312,3.349628444
5.223506333,3.602192405,-1.542273295,0.905086418,4.021638779
5.233442333,3.371412159,-1.815819784,0.726714765,3.897657731
5.243378333,2.391939803,-1.586214828,0.620033485,2.936306357
5.253314333,1.28862108,-0.957479809,0.603397572,1.715051166
5.263250333,0.735258717,-0.346307194,0.448369759,0.928207678
5.273186333,0.836499163,0.110542489,0.22685501,0.873735479
5.283122333,1.363903981,0.322703446,-0.111157251,1.405961422
5.293057333,2.218362867,0.228378064,-0.46841109,2.278749504
5.302993333,3.254052694,-0.308072397,-0.960879453,3.406913098
5.312929333,3.779211597,-1.171492141,-1.427325221,4.206196788
5.322865333,3.797173659,-1.953667455,-1.662469829,4.582482979
5.332801333,3.257102017,-2.516419715,-1.51232985,4.384999807
5.342737333,2.450224264,-2.781828634,-1.010222352,3.84222835
5.352673333,1.761607617,-2.661911597,-0.494066334,3.230036576
5.362609333,1.071496421,-2.26575455,-0.132325414,2.50983232
5.372544333,0.267538183,-1.692945956,0.198926954,1.725460698
5.382480333,-0.748900271,-1.132145496,0.523502387,1.454874493
5.392416333,-1.671506701,-0.834657729,0.779143825,2.024266108
5.402352333,-2.408233069,-0.702685925,0.91646393,2.670816385
5.412288333,-2.880960574,-0.62772579,0.869434701,3.07406737
5.422224333,-3.178824171,-0.57206936,0.676200085,3.299914093
5.432160333,-3.482900435,-0.517721099,0.314769652,3.535210109
5.442096333,-3.789789795,-0.443497639,-0.318619459,3.82893134
5.452031333,-4.071378837,-0.282205046,-1.048563495,4.213697987
5.461967333,-4.431672571,-0.038002005,-1.580393633,4.705189684
5.471903333,-4.745547599,0.152154199,-2.100802404,5.19198841
5.481839333,-4.960229291,0.259548109,-2.587809833,5.600714202
5.491775333,-5.140774353,0.36452551,-2.917213311,5.922041312
5.501711333,-5.233287245,0.412202464,-3.058156936,6.075321399
5.511647333,-5.181465127,0.374299424,-3.021988399,6.009999568
5.521582333,-5.087603867,0.260581677,-2.869517573,5.846857876
5.531518333,-4.951531557,0.093238312,-2.684829174,5.633352984
5.541454333,-4.810670963,-0.098040192,-2.388851742,5.372036824
5.551390333,-4.64130987,-0.136359993,-2.074638891,5.085713115
5.561326333,-4.33594371,-0.038056969,-1.892542124,4.731127971
5.571262333,-3.857495874,0.07867531,-1.857011518,4.281933676
5.581198333,-3.322716547,0.152773127,-1.945976173,3.85364868
5.591134333,-2.910186712,0.070906407,-2.060428549,3.56645205
5.601069333,-2.36933856,0.027219227,-2.051748358,3.134354387
5.611005458,-1.749139014,0.002815288,-1.833852159,2.534266946
5.620941458,-1.1931647,-0.093601497,-1.430874481,1.86542355
5.630877458,-0.605982626,-0.111952399,-0.993799789,1.169352942
5.640813458,0.103563545,-0.174302575,-0.521219634,0.55926443
5.650749458,0.66176214,-0.213237576,-0.024015684,0.695683942
5.660685458,1.21132849,-0.102330952,0.253627072,1.241819241
5.670621458,1.85352877,0.090640467,0.363122617,1.890936972
5.680556458,2.838277069,0.263162273,0.255032596,2.8618373
5.690492458,4.012414929,0.428014578,0.074723177,4.03587086
5.700428458,4.892186412,0.576020177,0.015476922,4.926005143
5.710364458,5.500703221,0.643834577,0.013742711,5.538271188
5.720300458,5.812135867,0.78522873,-0.010981144,5.864949111
5.730236458,5.882363266,1.067603053,0.101790596,5.979325647
5.740172458,5.556918352,1.418924234,0.367982823,5.747007823
5.750107458,4.912670377,1.896838804,0.61476222,5.301911002
5.760043458,4.262171729,2.267758099,0.915542409,4.913965053
5.769979458,4.023824601,2.285466976,1.114054138,4.759794149
5.779915458,4.235820082,1.821359144,1.33527309,4.800257819
5.789851458,4.504993147,1.000466492,1.725414521,4.926758744
5.799787458,4.080332678,0.518165925,2.042518966,4.592329955
5.809723458,3.259520425,0.343627123,2.015478517,3.847688482
5.819659458,2.495917915,0.413147301,1.747255626,3.074605528
5.829594458,2.343757576,0.274970871,1.376802939,2.73210448
5.839530458,2.622433535,0.045215349,1.079374959,2.836239126
5.849466458,2.94936832,0.059322342,0.966217157,3.104169489
5.859402458,3.070861766,0.269452269,0.971700749,3.232181749
5.869338458,3.212792986,0.496839083,1.081034399,3.426006891
5.879274458,3.545168604,0.746820416,1.103063638,3.787177122
5.889210458,3.759649152,0.866554144,1.136730444,4.022192677
5.899146458,3.885616304,0.832192396,1.111113646,4.126152176
5.909081458,3.71417828,0.764136069,1.04201359,3.932533095
5.919017458,3.31441467,0.806677778,1.048355334,3.568630347
5.928953458,2.738470945,0.932881157,1.120694821,3.102490492
5.938889458,1.957984015,1.111029154,1.181709493,2.542542922
5.948825458,1.158403003,1.315784613,1.299350721,2.182085919
5.958761458,0.380754311,1.434914322,1.389872636,2.033641783
5.968697458,-0.162314613,1.440123899,1.415506244,2.025823489
5.978632458,-0.644557292,1.379690879,1.405312793,2.072173996
5.988568458,-1.140021111,1.336519132,1.340701645,2.209844434
5.998504458,-1.762963586,1.352778484,1.102304816,2.480549564
6.008440458,-2.398837763,1.344533325,0.693958079,2.836154137
6.018376458,-2.908849454,1.36659604,0.285917005,3.22656759
6.028312458,-3.342398275,1.374699988,-0.255701737,3.623093935
6.038248458,-3.631822001,1.407593792,-0.801762682,3.976716577
6.048184458,-3.857018741,1.384275242,-1.321214191,4.305626372
6.058119458,-3.903995272,1.270190364,-1.797135006,4.481546259
6.068055458,-3.927032717,1.102474531,-2.15862435,4.614834248
6.077991458,-4.034233814,0.953097613,-2.471801659,4.826307177
6.087927458,-3.984191589,0.757247464,-2.630087541,4.833690806
6.097863458,-3.906224815,0.597156985,-2.59375762,4.726813659
6.107799458,-3.941067204,0.436214567,-2.549278436,4.713927704
6.117735458,-4.062067146,0.23212379,-2.5250657,4.788551737
6.127670458,-4.002517347,0.037121926,-2.315889308,4.624377411
6.137606458,-3.657273762,-0.257850808,-1.896980453,4.128035034
6.147542458,-3.348439618,-0.563292836,-1.388712402,3.668496808
6.157478458,-2.920112361,-0.83134148,-0.930611999,3.17556665
6.167414458,-2.375437791,-1.109222218,-0.683446831,2.709276324
6.177350458,-1.818227375,-1.186743872,-0.541860305,2.237839225
6.187286458,-1.112823372,-1.193964745,-0.511138011,1.710318606
6.197222458,-0.234178063,-1.235176067,-0.701112732,1.439464603
6.207157458,1.10564533,-0.858750596,-0.934156435,1.683018843
6.217093458,1.717356473,-1.203421593,-1.025482342,2.334341625
6.227029458,1.63619712,-1.64940408,-1.003315694,2.530675249
6.236965458,1.856172881,-1.452819374,-1.103656692,2.602713967
6.246901458,2.500392205,-0.833036003,-0.914415212,2.789635342
6.256837458,2.956187342,-0.574440406,-0.395928274,3.037397666
6.266773458,3.262011339,-0.679034669,0.043633093,3.332222967
6.276708458,3.498837022,-0.816118839,0.127295931,3.595012478
6.286644458,3.73566095,-0.758685733,0.248565722,3.820019855
6.296580458,3.910769271,-0.6800572,0.612305147,4.016405318
6.306516458,4.33446378,-0.961023222,0.697357065,4.494157181
6.316452458,4.9672249,-1.575382569,0.418006483,5.227799046
6.326388458,4.706371838,-1.970693669,0.328644437,5.112883393
6.336324458,3.613467007,-1.710529703,0.427354208,4.02065757
6.346260458,1.998487093,-1.01285221,0.877116773,2.406066104
6.356195458,0.742705146,-0.342614531,1.439660507,1.655783207
6.366131458,0.262369829,0.001596875,1.863042629,1.881427201
6.376067458,0.570969499,-0.133206443,1.843531201,1.934517359
6.386003458,1.328993765,-0.649434601,1.625544078,2.197813295
6.395939458,2.238341049,-1.456916664,1.380152224,3.006259633
6.405875458,3.004036278,-2.380180029,0.970938857,3.953759374
6.415811458,3.146520644,-3.172284645,0.407884734,4.486686081
6.425746458,2.757576138,-3.563961555,0.050948471,4.506511275
6.435682458,2.10831593,-3.635871783,-0.117928838,4.204576898
6.445618458,1.444151169,-3.470393533,-0.154185668,3.762044271
6.455554458,1.076703951,-3.15653517,-0.178383932,3.339884205
6.465490458,0.860218978,-2.771176469,-0.042354891,2.901928609
6.475426458,0.686379502,-2.392017863,0.107137875,2.490852224
6.485362458,0.391893842,-2.144732096,0.118178076,2.183442833
6.495297458,-0.061644271,-1.943701022,-0.008389073,1.944696391
6.505233458,-0.694667346,-1.775761094,-0.166357232,1.914044126
6.515169458,-1.522818439,-1.720531365,-0.344823756,2.323382792
6.525105458,-2.512378997,-1.724485106,-0.67185151,3.120461754
6.535041458,-3.329665963,-1.641267533,-0.960817984,3.834528099
6.544977458,-3.898352124,-1.505139382,-1.130308374,4.328994209
6.554913458,-4.300048823,-1.418938706,-1.308566225,4.713401372
6.564848458,-4.755014241,-1.371773164,-1.564971163,5.19047751
6.574784458,-5.502764949,-1.220500067,-2.047673433,5.996916623
6.584720458,-6.079718488,-0.962288851,-2.615846062,6.688170703
6.594656458,-6.293935327,-0.668633715,-2.950524314,6.983286237
6.604592458,-5.879243776,-0.456452146,-2.737372254,6.50131239
6.614528458,-5.179939004,-0.637265084,-2.183582459,5.657376355
6.624464458,-5.162332453,-0.830692147,-2.156947807,5.656160326
6.634400458,-6.152468376,-0.962734994,-2.291284371,6.635488667
6.644335458,-6.974417328,-0.944334757,-2.198592846,7.373471075
6.654271458,-6.763593628,-0.38010739,-2.298424406,7.153561012
6.664207458,-5.944719728,0.10821749,-2.489425459,6.44582367
6.674143458,-5.087097498,0.238624359,-2.20363607,5.549010224
6.684079458,-4.462194452,0.312609252,-1.48405213,4.712888137
6.694015458,-3.628439972,0.288625947,-0.55305363,3.681677591
6.703951458,-1.95569483,0.058381817,1.034079942,2.213023279
6.713886458,-0.061813256,0.009207757,1.919686946,1.920703941
6.723822458,-0.849038517,0.093265721,-0.301463728,0.905784344
6.733758458,-0.159209157,0.444707501,-0.593416521,0.758455988
6.743694458,-0.184780785,0.286245618,-0.436909947,0.554049451
6.753630458,0.247795644,0.169070194,-0.70524072,0.76638886
6.763566458,0.82212963,-0.06226393,-1.044453926,1.330660712
6.773502458,1.454010159,-0.308546606,-1.233688243,1.931665922
6.783437458,2.10668865,-0.37957522,-1.405881874,2.560999464
6.793373458,2.922397453,-0.377491419,-1.485105214,3.299764255
6.803309458,3.789951763,-0.406555589,-1.472654153,4.086285852
6.813245458,4.774359754,-0.54566465,-1.351747182,4.991941647
6.823181458,5.503857794,-0.679783551,-1.00582298,5.636154377
6.833117458,5.285634443,-0.938595203,-0.307909698,5.377146158
6.843053458,4.486577926,-1.119183242,0.472563198,4.648146791
6.852988458,5.113160877,1.173664382,0.900685145,5.322887935
6.862924458,4.471130751,-0.083440498,1.288363802,4.653799931
6.872860458,4.832315016,-1.042113578,0.824376862,5.011673008
6.882796458,5.229635659,-1.280453104,0.786732487,5.441286363
6.892732458,4.807511128,-1.85378634,1.068735877,5.262212787
6.902668458,4.033153249,-1.870297123,1.393090943,4.65886669
6.912604458,3.148613947,-1.405050838,1.912506711,3.942793371
6.922540458,2.779158211,-0.656221611,2.274520696,3.650724799
6.932475458,2.954165375,0.076485674,2.382149079,3.795731465
6.942411458,3.509744418,0.657205989,2.163242189,4.174906269
6.952347458,3.977998218,0.996281347,1.738984008,4.454336283
6.962283458,4.197039594,1.035738066,1.267175832,4.50484509
6.972219458,4.260132805,0.767293565,0.725106781,4.388992
6.982155458,4.116010049,0.364616288,0.441037277,4.155598349
6.992091458,3.730835243,0.070677634,0.404792142,3.753396277
7.002026458,3.240229291,-0.034002436,0.553175764,3.287285423
7.011962458,2.695222015,-0.017694552,0.681927944,2.78020872
7.021898458,2.018998541,0.183584737,0.700119874,2.144813816
7.031834458,1.241439897,0.54214945,0.734438353,1.540940861
7.041770458,0.463778341,0.874480922,0.768666199,1.253257738
7.051706458,-0.320698144,1.167781937,0.866790079,1.489257195
7.061642458,-1.057580633,1.438496912,1.064003214,2.078425606
7.071577458,-1.697030967,1.644277972,1.278028849,2.68643293
7.081513458,-2.297573928,1.820539364,1.569828883,3.325292807
7.091449458,-2.850066226,1.916101287,1.794381845,3.874806813
7.101385458,-3.305205891,1.958415247,1.843868001,4.261411206
7.111321458,-3.607121024,1.980619172,1.798322868,4.49089518
7.121257458,-3.837894253,1.972100363,1.565890199,4.590274965
7.131193458,-4.034707439,1.938193237,1.208169824,4.636284231
7.141128458,-4.206714397,1.945040034,0.856342201,4.713061502
7.151064458,-4.268163956,1.937475199,0.582129458,4.723336576
7.161000458,-4.266035569,1.872548009,0.299342943,4.668522434
7.170936458,-4.137944709,1.738885044,0.009854239,4.488474654
7.180872458,-4.03124004,1.62967075,-0.278554264,4.357099436
7.190808458,-3.854650034,1.480754739,-0.541798982,4.164673771
7.200744458,-3.708596528,1.298001476,-0.76180683,4.002355017
7.210679458,-3.596398399,1.162787245,-0.946448525,3.896398393
7.220615458,-3.295104241,0.99774549,-1.056590772,3.601331987
7.230551458,-2.923365167,0.701040226,-1.142955901,3.216188659
7.240487458,-2.445814294,0.334946931,-1.197224495,2.74363691
7.250423458,-2.05641312,-0.010381731,-1.259907158,2.411702458
7.260359458,-1.754447701,-0.308483895,-1.317848972,2.215846331
7.270295458,-1.514741095,-0.5949118,-1.354031543,2.117017254
7.280230458,-1.276937758,-0.740441981,-1.418849097,2.047426953
7.290166458,-0.885611097,-0.832280982,-1.488036423,1.921262877
7.300102458,-0.327855721,-1.00332198,-1.482922887,1.820221046
7.310038458,0.521435396,-1.364549222,-1.268633543,1.934766269
7.319974458,1.455781866,-1.866878548,-0.796301967,2.497725601
7.329910458,2.178863756,-2.264322859,-0.281645833,3.15498489
7.339846458,2.830699663,-2.537654756,0.142311252,3.804313963
7.349781458,3.310453767,-2.827842421,0.454863603,4.377521878
7.359717458,3.504586589,-2.914813029,0.664370583,4.606479179
7.369653458,3.427442518,-2.64827969,0.760765441,4.397671156
7.379589458,3.059707618,-2.184938136,0.865190281,3.858020164
7.389525458,2.676312704,-1.732453107,1.047972561,3.355933543
7.399461458,2.228456331,-1.29213321,1.295817248,2.883533976
7.409397458,2.309546687,-1.121849719,1.502129821,2.974717917
7.419332458,3.176415703,-1.469407925,1.52718397,3.818516367
7.429268458,3.974658873,-2.094988079,1.38197714,4.700717926
7.439204458,4.020612726,-2.336174615,1.291536502,4.826085894
7.449140458,3.263736268,-1.933994936,1.414043856,4.048682608
7.459076458,2.10836797,-1.032656876,1.713671558,2.906590086
7.469012458,1.179851174,0.047287895,1.956717508,2.285394571
7.478948458,0.813703793,0.957932676,1.890055742,2.269814878
7.488883458,1.171835226,1.547298392,1.606962211,2.519852706
7.498819458,1.907985059,1.716150485,1.165516725,2.81851179
7.508755458,2.577769579,1.525511082,0.722229951,3.081184215
7.518691458,2.991506864,1.023731394,0.371278313,3.183549414
7.528627458,3.103465256,0.258714734,0.270798005,3.125981681
7.538563458,2.827439255,-0.424284493,0.378030093,2.883979338
7.548499458,2.153166997,-0.628706076,0.661092049,2.338470044
7.558434458,1.45648704,-0.557641355,0.816856027,1.76056018
7.568370458,0.930431174,-0.315982657,0.783029299,1.256456164
7.578306458,0.531202585,0.058152899,0.763831721,0.932200002
7.588242458,0.223551918,0.475057328,0.670858653,0.851883946
7.598178458,-0.036148072,0.83789694,0.505597591,0.979288971
7.608114083,-0.404441382,1.083917661,0.270239048,1.188057015
7.618050083,-0.788145613,1.201274495,0.15094061,1.444651165
7.627985083,-1.291836464,1.318949418,0.092249182,1.848507216
7.637921083,-1.932219429,1.505040272,-0.162173147,2.454570894
7.647857083,-2.530369125,1.705352724,-0.53292872,3.097581128
7.657793083,-3.055543815,1.893983316,-0.874322535,3.69972441
7.667729083,-3.430812269,2.085351575,-1.19993753,4.190347729
7.677665083,-3.672506928,2.203548362,-1.514033582,4.5426017
7.687601083,-3.780999091,2.269711946,-1.808874754,4.766505462
7.697536083,-3.959091831,2.299154723,-2.051044791,5.016702632
7.707472083,-4.158112925,2.25125404,-2.150484295,5.194480778
7.717408083,-4.364674589,2.111702929,-2.08315653,5.277235513
7.727344083,-4.54855081,1.99187974,-1.918936894,5.32345923
7.737280083,-4.544437294,1.874702415,-1.723167582,5.209196289
7.747216083,-4.390163772,1.626312987,-1.51204319,4.919827891
7.757152083,-4.230409069,1.261392936,-1.360388197,4.619321279
7.767087083,-4.078167454,1.042430351,-1.303331505,4.406447983
7.777023083,-3.897391427,0.797077381,-1.257599847,4.172115729
7.786959083,-3.745884807,0.545814631,-1.20017975,3.971145682
7.796895083,-3.570009331,0.428594622,-1.155726805,3.776819352
7.806831083,-3.278132697,0.34123722,-1.060711232,3.46232655
7.816767083,-2.759237916,0.265922305,-0.968518914,2.936347636
7.826703083,-1.995238965,0.171934599,-0.844348465,2.173353254
7.836638083,-1.122391171,0.185345042,-0.678907346,1.324775418
7.846574083,-0.477470182,0.235674073,-0.538907534,0.757589185
7.856510083,0.112630822,0.285878559,-0.376891714,0.486271135
7.866446083,0.82414692,0.264232752,-0.167164952,0.881465379
7.876382083,1.438709165,0.239164276,0.113010818,1.462824343
7.886318083,2.160975369,0.137992828,0.334272528,2.191025945
7.896253083,2.843085819,-0.114994267,0.495530477,2.888236679
7.906189083,3.413679927,-0.428599738,0.52091726,3.479692971
7.916125083,4.036974989,-0.652185862,0.552140843,4.126423751
7.926061083,4.646540204,-0.625109746,0.791215401,4.754694509
7.935997083,5.062668416,-0.505542956,1.119674481,5.209592701
7.945933083,5.422551091,-0.322536801,1.255160973,5.57525958
7.955869083,5.723379226,-0.050756171,1.016802735,5.813220601
7.965804083,5.632691835,0.440730956,0.629781379,5.684899794
7.975740083,5.281310427,0.984979264,0.139259006,5.374180593
7.985676083,5.009368706,1.085905715,-0.276772764,5.133183147
7.995612083,4.630380254,0.628659298,-0.480386846,4.697489259
8.005548083,3.856217088,0.010307179,-0.389374861,3.875839167
8.015484083,2.693616954,-0.154203941,0.103354726,2.700006176
8.025420083,1.406895635,-0.026962681,0.583583112,1.523368492
8.035355083,0.438418967,0.001472329,0.782609981,0.89704612
8.045291083,0.150459968,-0.188915644,0.792456619,0.828441196
8.055227083,0.332352814,-0.55404064,0.701847142,0.953943832
8.065163083,0.765174242,-1.016666349,0.630522659,1.420091866
8.075099083,1.222808914,-1.526252655,0.663526683,2.065181945
8.085035083,1.603966683,-2.049322786,0.749844596,2.708265113
8.094971083,1.820048198,-2.442121046,0.977371306,3.198716198
8.104906083,1.714134073,-2.612978588,1.258914886,3.369091778
8.114842083,1.333096172,-2.363168432,1.53430354,3.117017452
8.124778083,0.963029401,-1.854294025,1.722927116,2.708193088
8.134714083,0.766706212,-1.340990351,1.817744395,2.385432503
8.144650083,0.69836454,-0.879154893,1.723221815,2.0567255
8.154586083,0.613578159,-0.419254864,1.469270808,1.64651435
8.164521083,0.360504819,0.15477726,1.364140794,1.419436448
8.174457083,-0.003242866,0.6437533,1.385488978,1.527746228
8.184393083,-0.487371857,0.918448621,1.364244289,1.715296382
8.194329083,-1.00972702,1.02404919,1.15140849,1.842272213
8.204265083,-1.646538506,1.123459165,0.786824727,2.142975197
8.214201083,-2.207568907,1.214133838,0.392479148,2.549808098
8.224137083,-2.511767963,1.239568349,-0.044831772,2.801342157
8.234072083,-2.680387629,1.174775791,-0.671480797,3.002575971
8.244008083,-2.740557232,1.092281957,-1.428541296,3.277874929
8.253944083,-2.634147847,0.991699177,-1.903241944,3.397724538
8.263880083,-2.54530116,0.938900574,-2.054416881,3.403045842
8.273816083,-2.530207157,0.821990832,-2.244337369,3.48061308
8.283752083,-2.34013815,0.557487647,-2.365379557,3.373730796
8.293688083,-2.144272213,0.215398341,-2.225314768,3.097793664
8.303623083,-2.099283736,-0.156457311,-1.885212493,2.825862211
8.313559083,-2.246703737,-0.601404475,-1.452005003,2.741839447
8.323495083,-2.423055176,-1.103906003,-1.047918255,2.861457237
8.333431083,-2.562297261,-1.722490329,-0.70872186,3.167747916
8.343367083,-2.67799144,-2.35658476,-0.544241584,3.608507833
8.353303083,-2.654385645,-2.914056399,-0.516940641,3.975514493
8.363238083,-2.522747279,-3.489587896,-0.509011963,4.335962488
8.373174083,-2.619322817,-3.919575178,-0.444179059,4.735104712
8.383110083,-2.801196367,-4.016539848,-0.30461947,4.906331262
8.393046083,-2.914044705,-3.898831888,-0.127924215,4.86917973
8.402982083,-2.786100025,-3.744356637,0.060669979,4.667573333
8.412918083,-2.442756785,-3.624014214,0.223296249,4.376117109
8.422854083,-1.846382303,-3.550803858,0.419974364,4.024141414
8.432789083,-0.977990672,-3.539167607,0.586953886,3.718425469
8.442725083,-0.117581075,-3.628584106,0.759685607,3.709119861
8.452661083,0.456391554,-3.599334871,0.882230821,3.733876804
8.462597083,0.913215802,-3.413787223,0.847407728,3.634006902
8.472533083,1.259729987,-3.116768549,0.723299261,3.43865201
8.482469083,1.473978401,-2.578342606,0.634833958,3.037017793
8.492405083,1.67367134,-1.839495014,0.628153367,2.565052498
8.502340083,1.933010557,-1.118771233,0.516912429,2.29246098
8.512276083,2.074198596,-0.212543073,0.254160777,2.100493293
8.522212083,2.121476258,0.765712186,-0.072338975,2.256592474
8.532148083,2.635554103,1.083894711,-0.491582437,2.891820614
8.542084083,3.217243887,0.753829328,-1.042522737,3.46493442
8.552020083,3.110646222,0.401791424,-1.462695614,3.460785275
8.561955083,2.247611225,0.63066577,-1.435514685,2.740474036
8.571891083,1.4959575,1.354186201,-1.206498763,2.351031343
8.581827083,1.224880582,2.095251642,-1.132043901,2.678046915
8.591763083,1.754600898,2.408730521,-1.39396978,3.289948143
8.601699083,2.711040487,2.297376292,-1.726556628,3.950781713
8.611636083,3.495552641,1.939425684,-1.666534814,4.331004333
8.621572083,4.285404471,1.234325297,-1.15209393,4.606036349
8.631507083,4.905382408,0.329178507,-0.534574674,4.945392314
8.641443083,5.129789189,-0.692384154,0.093941367,5.177157321
8.651379083,5.10340012,-1.543810966,0.99943592,5.424658261
8.661315083,4.677059162,-2.093984843,2.218164062,5.583897092
8.671251083,3.684637561,-2.078584008,3.467858473,5.470201808
8.681187083,2.381584969,-1.48794813,4.248476965,5.092690166
8.691122083,1.370566299,-0.806205031,4.536032506,4.806663024
8.701058083,0.822245405,-0.285567926,4.354563584,4.440704961
8.710994083,0.354308524,0.177412709,3.980574501,4.000247887
8.720930083,-0.050387796,0.704252394,3.400167012,3.472700113
8.730866083,-0.604465858,1.178163814,2.535811129,2.860731904
8.740802083,-1.317401075,1.564789314,1.474247957,2.521411952
8.750738083,-1.986002119,1.779855753,0.467630487,2.707539324
8.760673083,-2.512139845,1.858759397,-0.370525192,3.146922626
8.770609083,-3.09834368,1.957610086,-1.14052748,3.838329551
8.780545083,-3.659386945,2.024393767,-1.771195296,4.541631394
8.790481083,-4.108895742,1.97191296,-2.286291726,5.09888172
8.800417083,-4.328446995,1.756483409,-2.653813788,5.372468239
8.810353083,-4.742694742,1.478807762,-2.890697358,5.74770885
8.820288083,-5.175034944,1.284891287,-3.040973139,6.138358895
8.830224083,-5.486175814,1.14974927,-3.125075396,6.417643233
8.840160083,-5.6032704,0.943251048,-3.089766984,6.467845216
8.850096083,-5.556445897,0.645737991,-3.033413274,6.363384685
8.860032083,-5.454697328,0.431071794,-2.903105734,6.194156015
8.869968083,-5.22858316,0.320789653,-2.675326864,5.882037206
8.879903083,-4.81438336,0.193381747,-2.307694289,5.34239053
8.889839083,-4.268838724,0.023889092,-1.964404258,4.699195552
8.899775083,-3.634279001,-0.17903385,-1.703313215,4.01762528
8.909711083,-2.979516563,-0.416957054,-1.468348702,3.347748504
8.919647083,-2.318070758,-0.672407727,-1.152767602,2.674781736
8.929583083,-1.671179842,-0.86718345,-0.803677645,2.047131397
8.939519083,-0.988123312,-0.975559984,-0.400054801,1.445042839
8.949454083,-0.358198677,-0.982778518,0.110064479,1.051795654
8.959390083,0.15318711,-0.881067956,0.53958106,1.044459073
8.969326083,0.65580792,-0.63736741,0.765006353,1.192290218
8.979262083,1.169992769,-0.300560772,0.721932839,1.407269299
8.989198083,1.888886883,0.056908026,0.452150568,1.943083199
8.999134083,2.672543589,0.355989306,0.12302074,2.69895382
9.009069083,3.454996938,0.564249879,-0.274643646,3.511525437
9.019005083,4.162883084,0.629182624,-0.665455899,4.262428638
9.028941083,4.714308849,0.649624343,-0.911134778,4.845295274
9.038877083,4.935824182,0.796358612,-1.043375918,5.107365339
9.048813083,4.688997422,1.31934966,-1.141995642,5.003152446
9.058749083,4.55575458,1.871958025,-1.252482364,5.082109671
9.068684083,4.789860722,1.901983769,-1.394177356,5.338917353
9.078620083,5.309258364,1.283855453,-1.447275336,5.650762347
9.088556083,5.492960923,0.498077816,-1.555084544,5.730531315
9.098492083,5.370370538,-0.502185193,-1.528387912,5.606160834
9.108428083,4.640656151,-1.150018388,-0.800108358,4.847515363
9.118364083,3.465479241,-1.153591036,0.167917489,3.656297982
9.128300083,2.675235062,-0.819043031,0.747156047,2.895851565
9.138235083,2.729852734,-0.706432236,1.151344244,3.045773469
9.148171083,3.28201291,-0.810033349,1.480968747,3.690668123
9.158107083,3.673345419,-1.046311732,1.541185128,4.118675322
9.168043083,3.760546115,-1.339504574,1.674164261,4.328834203
9.177979083,3.541807625,-1.590087878,1.912306005,4.327781761
9.187915083,3.135619095,-1.75153608,2.101043748,4.161054022
9.197850083,2.864396582,-1.81861183,2.180561787,4.033232757
9.207786083,2.532582296,-1.735679016,2.059298721,3.696926555
9.217722083,2.035110544,-1.547080437,1.74572424,3.09559137
9.227658083,1.412261624,-1.238585579,1.384072198,2.333288019
9.237594083,0.642341782,-0.866419219,1.076164838,1.523619371
9.247530083,-0.238137798,-0.482999016,0.857485405,1.012560556
9.257465083,-1.038895855,-0.100886982,0.850757598,1.346577614
9.267401083,-1.79289022,0.253798249,1.102839836,2.120170889
9.277337083,-2.557285613,0.639903201,1.202002181,2.897239213
9.287273083,-3.146431766,0.835208975,1.242036898,3.484287954
9.297209083,-3.568459234,0.991099837,1.352502496,3.942771004
9.307145083,-3.977609378,1.180442913,1.23890279,4.330092604
9.317080083,-4.395979997,1.309774991,0.908624495,4.676082669
9.327016083,-4.742949681,1.37824954,0.492724873,4.963660068
9.336952083,-5.013007429,1.386082909,0.163691633,5.203677955
9.346888083,-5.22790079,1.316116734,-0.118076919,5.392314168
9.356824083,-5.411477634,1.182571738,-0.393647422,5.553154454
9.366760083,-5.526209945,1.018225801,-0.659086966,5.657753597
9.376696083,-5.548161562,0.78854147,-0.902374479,5.676105537
9.386631083,-5.566141165,0.488059781,-1.100058754,5.694757158
9.396567083,-5.515377393,0.196999566,-1.279051965,5.665171714
9.406503083,-5.438798749,-0.113805674,-1.43707253,5.626602973
9.416439083,-5.304800447,-0.490498948,-1.519845568,5.539984436
9.426375083,-5.131942134,-0.830390284,-1.541480997,5.422411065
9.436311083,-4.844322274,-1.136424488,-1.500623724,5.197190633
9.446246083,-4.486421805,-1.406894611,-1.340711001,4.889257515
9.456182083,-3.932514482,-1.518886479,-0.841481064,4.298811076
9.466118083,-3.274952981,-1.44099455,-0.174897895,3.582229975
9.476054083,-2.61545196,-1.311470537,0.370931647,2.949259943
9.485990083,-1.64035566,-1.237600176,0.841442911,2.220461001
9.495926083,-0.410950502,-1.23087354,1.192230315,1.762198374
9.505861083,0.83280957,-1.211175732,1.498933148,2.099361573
9.515797083,2.015842214,-1.169865446,1.762791093,2.922265804
9.525733083,3.076512516,-1.231621398,1.952790518,3.846454385
9.535669083,3.83624183,-1.362102893,1.994028007,4.53301482
9.545605083,4.404895831,-1.512267869,1.836692297,5.006345972
9.555541083,4.782683265,-1.716544587,1.475654798,5.291327019
9.565476083,4.868150262,-1.798070707,0.984492191,5.282155821
9.575412083,4.51368094,-1.643988389,0.533224552,4.833253756
9.585348083,4.150981076,-1.196527287,0.263018833,4.327990336
9.595284083,3.783493513,-0.653479997,0.131490998,3.841763807
9.605220083,3.603815593,-0.146757365,-0.022345719,3.606871758
9.615155833,3.921890091,0.094534274,-0.317494454,3.935855859
9.625090833,4.479364216,-0.147966862,-0.721629442,4.539531586
9.635026833,4.831830867,-0.596367903,-1.082283438,4.987342142
9.644962833,4.781482832,-0.875456676,-1.226626561,5.013343713
9.654898833,4.117092953,-0.816867136,-1.184483339,4.361275855
9.664834833,3.197939889,-0.419351197,-0.987415214,3.37307927
9.674770833,2.305458899,0.177315353,-0.795325409,2.445224729
9.684705833,1.777485731,0.506100781,-0.431806387,1.897906815
9.694641833,1.649160982,0.608871004,-0.021059332,1.758095373
9.704577833,1.85912631,0.447403214,0.260157279,1.929819184
9.714513833,2.204413165,-0.092756136,0.429306703,2.247742278
9.724449833,2.31975651,-0.835047884,0.574100098,2.531435592
9.734385833,2.01222922,-1.440611265,0.621970668,2.551719961
9.744320833,1.519600716,-1.727505924,0.64263122,2.388815175
9.754256833,1.068344772,-1.883168599,0.48868865,2.219572283
9.764192833,0.543663002,-1.951905396,0.221431718,2.038267927
9.774128833,-0.015391041,-1.813752062,-0.149340884,1.81995498
9.784064833,-0.573103148,-1.58450788,-0.58189451,1.782614277
9.794000833,-1.136604583,-1.260223492,-0.937218622,1.938662419
9.803935833,-1.779748018,-0.994143167,-1.114379974,2.323287836
9.813871833,-2.333506238,-0.809563672,-1.182040445,2.738222839
9.823807833,-2.783901472,-0.698290427,-1.168459044,3.098872935
9.833743833,-3.179402461,-0.526216664,-1.03223763,3.383935359
9.843679833,-3.554381477,-0.21481457,-0.826258349,3.655472041
9.853615833,-3.862405196,0.137794753,-0.721576232,3.931645146
9.863550833,-4.030702681,0.442901589,-0.713992467,4.117342731
9.873486833,-4.065368484,0.693780908,-0.794737837,4.200019177
9.883422833,-4.082865692,0.984784259,-0.958344685,4.307901674
9.893358833,-4.22751879,1.397055501,-1.145376576,4.597343439
9.903294833,-4.201197549,1.797936806,-1.480242523,4.803514914
9.913230833,-3.955647236,2.00794131,-1.977865133,4.857048883
9.923166833,-3.79108086,1.979102843,-2.146451324,4.785017809
9.933101833,-3.509132214,2.020116967,-2.177811842,4.597580437
9.943037833,-3.332995368,2.092235794,-2.196289043,4.506661104
9.952973833,-3.51177691,2.000829634,-2.062906014,4.537783326
9.962909833,-3.842683707,1.74041643,-1.672992479,4.538080129
9.972845833,-3.869900742,1.382813877,-1.214830826,4.285337782
9.982780833,-3.843707555,1.017828922,-0.980154215,4.095212542
9.992716833,-3.736885942,0.646000678,-0.783293667,3.872361345
10.00265283,-3.449361391,0.348549748,-0.463607749,3.497786883
10.01258883,-3.029597381,0.153842144,-0.256743053,3.044346349
10.02252483,-2.514423768,1.38871E-05,-0.112742577,2.516950094
10.03246083,-2.117807715,-0.055104453,0.0288449,2.118720851
10.04239683,-1.545698594,-0.020124508,0.153291702,1.553411563
10.05233183,-0.761899801,-0.045829014,0.119732265,0.772610782
10.06226783,0.212341636,-0.170826113,-0.036446865,0.274952551
10.07220383,1.202951185,-0.358560912,-0.248770448,1.279665665
10.08213983,2.101363006,-0.449422258,-0.480643466,2.201982059
10.09207583,3.087242156,-0.504015079,-0.677132131,3.200562959
10.10201083,4.040130731,-0.616575734,-0.760674224,4.15709601
10.11194683,4.806186733,-0.606285804,-0.697112651,4.894178117
10.12188283,5.373869512,-0.391269651,-0.691441437,5.432279147
10.13181883,5.71616844,0.011705249,-0.652788418,5.753333935
10.14175483,5.77519959,0.504106588,-0.569677849,5.825082541
10.15169083,5.575297905,1.052258789,-0.490719388,5.694910079
10.16162583,5.166000411,1.647202165,-0.521656421,5.447289293
10.17156183,4.966827874,1.935853474,-0.571509781,5.361299397
10.18149783,5.202537323,1.723784025,-0.613101648,5.514863515
10.19143383,5.625806739,1.044202788,-0.492263052,5.743029152
10.20136983,5.665796431,0.286088767,-0.134594718,5.674611152
10.21130583,5.167286214,-0.388621447,0.307727265,5.191008526
10.22124083,4.222431713,-0.684963014,0.679431256,4.331250481
10.23117683,2.816150036,-0.531893141,1.044221499,3.050247511
10.24111283,1.575417067,0.144650467,1.388524268,2.104961362
10.25104883,1.042733967,0.923462462,1.610110352,2.128974493
10.26098483,1.27336511,1.369833058,1.68659778,2.518434708
10.27092083,1.928859034,1.360895004,1.475820858,2.783986277
10.28085583,2.693353829,1.023542821,1.219198258,3.128616171
10.29079183,3.180827428,0.4333889,1.033280847,3.372411358
10.30072783,3.165477317,-0.138201573,0.890793484,3.291330939
10.31066383,2.892198923,-0.513695729,0.732129872,3.027327544
10.32059983,2.516254531,-0.768522065,0.53275736,2.684398151
10.33053583,2.042787353,-0.80096154,0.429444661,2.235831451
10.34047083,1.537385607,-0.599436961,0.417770694,1.702178466
10.35040683,1.00194613,-0.179236163,0.490876678,1.130036089
10.36034283,0.491973615,0.339349885,0.573836389,0.828543652
10.37027883,-0.078413501,0.764518184,0.734952323,1.063386876
10.38021483,-0.609496218,1.130074997,0.875242814,1.553899972
10.39014983,-1.053689311,1.457106552,1.07491061,2.094959066
10.40008583,-1.444965686,1.683587633,1.250592543,2.546836246
10.41002183,-1.876595451,1.821315582,1.33429719,2.93583888
10.41995783,-2.272682916,1.899326794,1.344620449,3.252773288
10.42989383,-2.747128333,1.897766173,1.051873165,3.500666748
10.43982983,-3.190539653,1.798349473,0.550033543,3.703530883
10.44976483,-3.325653604,1.660993407,0.317659346,3.73092193
10.45970083,-3.527704725,1.61554417,0.174307216,3.883949871
10.46963683,-3.769867162,1.543155201,-0.063096135,4.073967049
10.47957283,-3.925475603,1.323716799,-0.275878688,4.15183019
10.48950883,-4.014942096,1.07170809,-0.483784078,4.18358283
10.49944483,-4.089098824,0.841765458,-0.708770245,4.234578319
10.50937983,-4.124561602,0.516964761,-0.94304603,4.262463699
10.51931583,-4.082835871,0.141949931,-1.180572209,4.252463906
10.52925183,-3.96128746,-0.276604875,-1.377744341,4.203152159
10.53918783,-3.720558761,-0.753633592,-1.531626685,4.093458365
10.54912383,-3.229261084,-1.263337719,-1.641794659,3.836618178
10.55905983,-2.667182277,-1.840237318,-1.653756309,3.638027572
10.56899483,-2.187459748,-2.279167478,-1.484908601,3.490635772
10.57893083,-1.757192969,-2.502111286,-1.154412936,3.26817338
10.58886683,-1.330222265,-2.612371939,-0.780634426,3.033705413
10.59880283,-0.831355952,-2.557650479,-0.539911428,2.743033547
10.60873837,-0.260019833,-2.454687736,-0.344066541,2.492284891
10.61867337,0.323879029,-2.318635891,-0.174049317,2.347607971
10.62860937,0.835959465,-2.057290933,0.064838605,2.22159363
10.63854537,1.476550591,-1.826111615,0.280358715,2.365055239
10.64848137,2.172099112,-1.720055548,0.499312383,2.815300783
10.65841738,2.874182482,-1.60878815,0.716752279,3.370883872
10.66835338,3.483722554,-1.49946466,0.875138149,3.892375095
10.67828837,3.760067813,-1.397990764,0.961094046,4.125068472
10.68822438,3.67139011,-1.220181175,1.01493455,3.99975494
10.69816038,3.202974926,-1.024999216,1.02042684,3.514390802
10.70809637,2.614983598,-1.003003014,0.868085237,2.932187962
10.71803237,2.47744773,-1.388972018,0.439208999,2.874003317
10.72796738,2.713175306,-1.994362321,-0.032765385,3.36747307
10.73790338,2.693267875,-2.460322405,-0.37743375,3.667333421
10.74783937,2.210768504,-2.602051603,-0.456864703,3.444836031
10.75777537,1.459376734,-2.442197645,-0.328886621,2.863961626
10.76771137,0.71346439,-2.059986354,-0.141054137,2.1845987
10.77764737,0.178272834,-1.538260936,0.141473967,1.555005721
10.78758237,0.073679595,-0.882248655,0.567283962,1.051476327
10.79751837,0.329385937,-0.362304738,0.933367061,1.054008486
10.80745437,0.800937567,-0.057805574,1.136888757,1.391890268
10.81739037,1.438381721,0.120879489,1.11017166,1.820998336
10.82732638,1.943119224,0.101408407,0.793601065,2.101380173
10.83726238,2.138895113,-0.157601319,0.234072795,2.157429154
10.84719737,1.907900859,-0.420923952,-0.288409837,1.974953897
10.85713338,1.462524875,-0.426894982,-0.513861498,1.607878097
10.86706938,0.894212936,-0.280318003,-0.517043552,1.070293881
10.87700537,0.326382222,-0.068907098,-0.461882089,0.569744335
10.88694137,-0.048259994,0.194434831,-0.407984794,0.454516802
10.89687638,-0.359637092,0.41007722,-0.327582656,0.63624882
10.90681238,-0.555151026,0.672144748,-0.184453341,0.891063555
10.91674837,-0.726224769,0.891850514,-0.003524703,1.150135722
10.92668437,-0.907132359,1.076922053,0.124908221,1.413595517
10.93662037,-1.171180338,1.218337402,0.131415002,1.695075017
10.94655637,-1.556297257,1.381384525,0.087808222,2.082785309
10.95649137,-1.92317671,1.47158689,0.043926038,2.422004568
10.96642737,-2.291755364,1.507694762,-0.03124869,2.743403474
10.97636337,-2.565184616,1.515865661,-0.107284137,2.981531604
10.98629937,-2.846601166,1.529828666,-0.169231267,3.236070636
10.99623538,-3.118857467,1.476477793,-0.316978145,3.465217701
11.00617037,-3.310119306,1.401217111,-0.551796515,3.636588869
11.01610637,-3.418717888,1.237175084,-0.767603175,3.715837566
11.02604238,-3.498991388,1.052005751,-0.934532411,3.7713403
11.03597838,-3.535910123,0.82836437,-1.042650937,3.778355317
11.04591437,-3.589287016,0.513243301,-1.132839561,3.798647843
11.05585037,-3.572966852,0.202422274,-1.19394121,3.77260686
11.06578538,-3.629235778,-0.11098907,-1.219021014,3.830102236
11.07572138,-3.743830095,-0.396833131,-1.153249778,3.93747703
11.08565737,-3.759009467,-0.636713837,-1.019236346,3.946441361
11.09559337,-3.698368578,-0.840518685,-0.961905055,3.912756462
11.10552937,-3.571053059,-0.958302731,-1.055415993,3.845083483
11.11546437,-3.312071106,-1.09763194,-1.262221047,3.710500352
11.12540037,-2.897100059,-1.218906774,-1.420952341,3.449351828
11.13533637,-2.260993747,-1.254205392,-1.353476642,2.918393892
11.14527237,-1.323530127,-1.247519978,-1.031595606,2.090987228
11.15520837,-0.239407228,-1.355139882,-0.727103021,1.556405707
11.16514438,0.822932453,-1.348556795,-0.326350062,1.613173151
11.17507937,1.8540749,-1.181416328,-0.006217947,2.198494243
11.18501537,2.678390805,-0.868987316,0.282656725,2.82998429
11.19495138,3.244281412,-0.458482957,0.426963687,3.304219498
11.20488738,3.765857141,-0.105734616,0.392735256,3.787756697
11.21482337,4.3818081,0.183327899,0.209711559,4.390652603
11.22475837,4.779046882,0.485128426,-0.08051499,4.804281565
11.23469438,5.127951409,0.756265716,-0.448158674,5.20275597
11.24463038,5.175875773,0.843967081,-0.854806795,5.313441927
11.25456637,4.845813314,0.857180326,-1.017241277,5.025081551
11.26450237,4.265136852,1.006064616,-0.902421842,4.474139421
11.27443738,3.583142762,1.216862149,-0.614642937,3.833725535
11.28437337,3.1889802,1.338564488,-0.393771419,3.480862757
11.29430937,3.415641083,1.121450939,-0.11951241,3.597018131
11.30424537,3.694447435,0.855190372,0.050158585,3.792467311
11.31418137,3.114948018,0.859575784,-0.649550815,3.296010914
11.32411737,2.258957747,0.84226978,-1.389406028,2.782581103
11.33405237,1.54962383,0.709139789,-1.197700385,2.082954504
11.34398837,1.118321509,0.557648372,-0.596641078,1.384772645
11.35392437,0.697288653,0.51912063,-0.015002713,0.869438195
11.36386038,0.444033464,0.193806694,0.175604713,0.515328795
11.37379638,0.390452503,-0.304546234,0.161127007,0.520733596
11.38373137,0.568763929,-0.941431395,0.302664088,1.140785268
11.39366737,0.966642981,-1.681079324,0.53241464,2.010942986
11.40360338,1.254538829,-2.340755908,0.661332443,2.736853393
11.41353938,1.04102775,-2.559852833,0.698763905,2.850413355
11.42347537,0.367875234,-2.487381565,0.616022295,2.588799472
11.43341137,0.128052269,-2.472939527,0.83398486,2.61292136
11.44334638,0.200653052,-2.290448219,0.998859385,2.506817656
11.45328237,-0.055883009,-1.735535467,0.843796488,1.930595447
11.46321837,-0.419683903,-1.162871445,0.706978658,1.424157084
11.47315437,-0.633695505,-0.540515153,0.917106539,1.238874904
11.48309037,-1.154055013,0.176294137,1.098854374,1.603247807
11.49302537,-1.614058977,0.803095628,1.280046723,2.211033374
11.50296137,-1.97996253,1.343223841,1.402334222,2.773273008
11.51289737,-2.37052496,1.789306462,1.406953522,3.286415131
11.52283337,-2.655208933,2.145808277,1.549157807,3.748935522
11.53276938,-2.877180934,2.363525843,1.65240911,4.073681431
11.54270437,-3.15540081,2.439137943,1.611894922,4.301645431
11.55264037,-3.417622705,2.347176443,1.332576939,4.354898794
11.56257637,-3.736949092,2.166640736,0.926832798,4.417933864
11.57251238,-3.939317132,1.922883472,0.578316525,4.421555192
11.58244838,-3.949919304,1.682090454,0.289357653,4.302908162
11.59238437,-3.941760099,1.454631426,0.087783061,4.202514858
11.60231938,-3.800611821,1.347852497,-0.06764938,4.033104637
11.61225533,-3.502786231,1.356286521,-0.154197509,3.759361831
11.62219133,-3.052619038,1.256235399,-0.188203709,3.306362201
11.63212733,-2.520369802,1.180230366,-0.174407861,2.788480905
11.64206333,-1.930146006,1.109702128,-0.117633115,2.229515635
11.65199833,-1.325145712,0.996014714,-0.107254929,1.66119237
11.66193433,-0.76319379,0.831256257,-0.184447531,1.143447689
11.67187033,-0.314031149,0.645544887,-0.384234026,0.814235562
11.68180633,-0.254598294,0.559640811,-0.628924177,0.879524729
11.69174233,-0.419652913,0.57649848,-0.976313764,1.208986199
11.70167733,-0.32210206,0.52404764,-1.400100585,1.529266921
11.71161333,0.004527499,0.289040149,-1.73387018,1.757802749
11.72154933,0.394738512,-0.130323766,-1.77931357,1.827227287
11.73148533,0.805020677,-0.524556932,-1.462169364,1.749616391
11.74142133,1.302811688,-0.908493298,-0.883896693,1.817677565
11.75135633,1.856850573,-1.35192713,-0.371658931,2.326742654
11.76129233,2.4280142,-1.796764001,0.063331777,3.021195913
11.77122833,2.74738678,-2.117693694,0.396947005,3.491464968
11.78116433,2.791967121,-2.184182968,0.70327971,3.613908963
11.79110033,2.541504562,-1.980701033,0.944443442,3.357736654
11.80103533,2.241982695,-1.554906204,1.168202351,2.96798188
11.81097133,2.063896387,-1.021710011,1.290239589,2.639749579
11.82090733,2.366879806,-0.582419809,1.109631962,2.678173994
11.83084333,3.258352152,-0.569789238,0.574046888,3.357238203
11.84077933,3.99897335,-0.990525056,-0.109921807,4.121287486
11.85071533,3.988874039,-1.304391021,-0.495951476,4.225934204
11.86065033,3.394712729,-1.101846394,-0.458091924,3.598331307
11.87058633,2.558767297,-0.311740502,-0.195150822,2.585064035
11.88052233,2.12506294,0.583927806,-0.115687162,2.20686377
11.89045833,2.287855856,1.162174749,-0.212050445,2.574859211
11.90039433,2.735763685,1.348762617,-0.336347047,3.068663043
11.91032933,3.367053645,1.142951443,-0.506329114,3.591623229
11.92026533,4.2495587,0.538559259,-0.614473368,4.327397918
11.93020133,4.728087813,-0.206907819,-0.673776999,4.780334785
11.94013733,4.666170477,-0.93830445,-0.459022801,4.781659136
11.95007333,4.227441607,-1.501487796,-0.175208309,4.489590861
11.96000833,3.378769711,-1.821246877,0.094706219,3.839530468
11.96994433,2.374382953,-1.87050236,0.342781323,3.042034274
11.97988033,1.286301489,-1.547415336,0.418653624,2.0553191
11.98981633,0.250624527,-0.989035185,0.308649956,1.065958745
11.99975233,-0.562049571,-0.47639634,0.096812331,0.743118982
12.00968733,-1.190596018,-0.040381164,-0.102320436,1.195666754
12.01962333,-1.792201418,0.273501758,-0.228722026,1.827321236
12.02955933,-2.353112537,0.509341015,-0.286156887,2.42455205
12.03949533,-2.853409079,0.73591419,-0.298606778,2.961870874
12.04943133,-3.34880273,0.910655306,-0.354928914,3.488516497
12.05936633,-3.841783236,1.04807803,-0.523235169,4.016408972
12.06930233,-4.31619357,1.145349825,-0.721894321,4.523547785
12.07923833,-4.664097639,1.21576872,-0.930014852,4.908852003
12.08917433,-4.912804863,1.236290985,-1.143165743,5.193351032
12.09911033,-5.128156646,1.272184118,-1.353807594,5.454286207
12.10904533,-5.301740014,1.327761318,-1.555186871,5.682429366
12.11898133,-5.335442196,1.357453479,-1.673255603,5.754077483
12.12891733,-5.382696469,1.281539809,-1.801344125,5.8189867
12.13885333,-5.444027329,1.097079744,-1.883050193,5.864034068
12.14878933,-5.42966072,0.920716464,-1.841277099,5.806826646
12.15872433,-5.337844816,0.654875289,-1.760314359,5.658635487
12.16866033,-5.272816177,0.343044886,-1.644327235,5.533902988
12.17859633,-5.05956296,0.041946463,-1.572505885,5.298463136
12.18853233,-4.669943685,-0.398548265,-1.532416059,4.931076324
12.19846833,-4.224967065,-0.879327825,-1.450138133,4.552632725
12.20840433,-3.842855616,-1.259269519,-1.326160789,4.255819715
12.21833933,-3.508822312,-1.511574536,-1.101258164,3.976111308
12.22827533,-3.165467377,-1.671908112,-0.853367868,3.680176241
12.23821133,-2.645875608,-1.788205723,-0.54591016,3.239807918
12.24814733,-2.055565274,-1.823746562,-0.213378932,2.756253016
12.25808333,-1.345665931,-1.800306244,0.052438415,2.248259139
12.26801833,-0.579946144,-1.672440794,0.213744968,1.782998219
12.27795433,0.340505002,-1.498303403,0.287550826,1.563183361
12.28789033,1.632083604,-1.395729499,0.223441972,2.159093337
12.29782633,2.884145553,-1.275693178,0.042918545,3.153970617
12.30776233,3.927324493,-1.147012919,-0.196065912,4.096090594
12.31769733,4.808365406,-1.106882308,-0.437275836,4.95346106
12.32763333,5.302339938,-0.991590126,-0.498065829,5.417206787
12.33756933,5.560227292,-0.547838498,-0.515879956,5.610916742
12.34750533,5.79742895,-0.171377798,-0.527624674,5.823911107
12.35744133,6.175907525,0.018633322,-0.604217352,6.205421788
12.36737633,6.832945114,-0.06303737,-0.778000109,6.877382992
12.37731233,7.476399622,-0.422081554,-0.861329949,7.537678252
12.38724833,7.383218393,-0.751780902,-0.590686895,7.444863959
12.39718433,6.355539837,-0.673317115,0.059466183,6.391383167
12.40712033,5.015810584,-0.243710487,0.843781285,5.092123081
12.41705533,4.197080525,0.114280322,1.244036061,4.379060475
12.42699133,4.111921676,0.12194456,1.123146046,4.264296822
12.43692733,4.515607013,-0.254388379,0.91592891,4.614579711
12.44686333,4.688582854,-0.753861341,0.634585451,4.791013963
12.45679933,4.475872259,-1.154612253,0.359323096,4.636342849
12.46673433,4.114365227,-1.493342333,0.158284128,4.379854611
12.47667033,3.674152334,-1.737219172,0.133682553,4.066349328
12.48660633,3.049472651,-1.782861661,0.184980175,3.537244241
12.49654233,2.305038484,-1.664322227,0.240238702,2.853223707
12.50647833,1.494864655,-1.319882049,0.330272959,2.021333517
12.51641333,0.783428079,-0.752212134,0.532329344,1.209527668
12.52634933,0.153442048,-0.246190583,0.788007034,0.839707896
12.53628533,-0.346041731,0.225248196,1.05642113,1.134243022
12.54622133,-0.878384523,0.644231018,1.322824953,1.713609883
12.55615733,-1.47212074,1.054792973,1.542309548,2.378748921
12.56609233,-2.030328106,1.439831246,1.710540959,3.020148441
12.57602833,-2.45729881,1.814781319,1.813531476,3.552554727
12.58596433,-2.766085006,2.161265099,1.807479608,3.948325673
12.59590033,-2.960144153,2.439732312,1.556152246,4.139608312
12.60583633,-3.125210466,2.623373768,1.152281553,4.239903674
12.61577208,-3.27965005,2.768424769,0.728913903,4.353343041
12.62570808,-3.346910571,2.907161363,0.365693638,4.448272631
12.63564408,-3.416982434,3.001285455,-0.004329278,4.547911837
12.64558008,-3.478972276,3.033622604,-0.311554853,4.626357166
12.65551508,-3.426067838,2.980954686,-0.601883728,4.581080189
12.66545108,-3.363755815,2.796666236,-0.937720313,4.473870204
12.67538708,-3.327738721,2.510209095,-1.140362588,4.321506858
12.68532308,-3.348644856,2.144361675,-1.187485884,4.149919528
12.69525908,-3.361558431,1.761559962,-1.098678957,3.950982667
12.70519408,-3.379543297,1.331303123,-0.979723202,3.762118878
12.71513008,-3.377407894,0.873332236,-0.814645779,3.582351326
12.72506608,-3.247419028,0.462261574,-0.666894241,3.34726217
12.73500208,-3.060934364,0.030986442,-0.560132306,3.11191702
12.74493808,-2.853744709,-0.304322432,-0.478325666,2.909513095
12.75487308,-2.627290817,-0.536964724,-0.375594765,2.707777609
12.76480908,-2.18180666,-0.675952309,-0.202361645,2.293063902
12.77474508,-1.476747642,-0.774174276,-0.110477329,1.671028021
12.78468108,-0.747518574,-0.926259478,-0.1441608,1.198967462
12.79461708,-0.065893443,-1.137463685,-0.237008116,1.163760468
12.80455208,0.58473326,-1.483739889,-0.310749691,1.624796114
12.81448808,1.133820723,-1.84702272,-0.404251347,2.204645439
12.82442408,1.614782862,-2.173413713,-0.401502571,2.73723495
12.83436008,2.039786562,-2.401670885,-0.332439974,3.168480487
12.84429608,2.571158132,-2.543960978,-0.268379634,3.626929724
12.85423108,3.102622672,-2.577764316,-0.248677477,4.041407775
12.86416708,3.302606803,-2.438264953,-0.372264739,4.122005424
12.87410308,3.313162197,-2.132935631,-0.5105572,3.973301751
12.88403908,3.14684458,-1.725531173,-0.683964602,3.653477277
12.89397508,2.869867821,-1.193729687,-0.877835469,3.229818414
12.90391008,2.984946288,-0.771345832,-1.137116214,3.286017653
12.91384608,3.546735658,-0.764671673,-1.391980557,3.886086266
12.92378208,3.983067169,-1.056561024,-1.55400281,4.404096957
12.93371808,3.761086398,-1.139974333,-1.495371024,4.204931256
12.94365408,2.790364984,-0.790443276,-1.098241585,3.101140419
12.95358908,1.639332397,-0.114253278,-0.453945079,1.704855024
12.96352508,0.973523984,0.370350068,0.181012255,1.057200812
12.97346108,0.897868615,0.157782437,0.674775703,1.1341894
12.98339708,1.176441078,-0.430877959,1.168907526,1.713480151
12.99333208,1.53608928,-1.126980943,1.681983157,2.541401909
13.00326808,1.80778074,-1.915041625,2.17466604,3.415351814
13.01320408,1.817265508,-2.71488854,2.547534796,4.142825998
13.02314008,1.602509556,-3.489141753,2.694174778,4.690493022
13.03307608,1.154532146,-4.117496996,2.573585311,4.990998632
13.04301108,0.534174725,-4.437394948,2.225263166,4.992756025
13.05294708,-0.172518005,-4.340060735,1.788022413,4.697117605
13.06288308,-0.907459803,-3.934043528,1.335259641,4.252422849
13.07281908,-1.490840017,-3.374144563,0.897928841,3.79654207
13.08275508,-1.746717682,-2.761269239,0.62215427,3.326064703
13.09269008,-1.877216426,-2.095468428,0.527306622,2.862338504
13.10262608,-1.982593192,-1.463598862,0.613830174,2.539603291
13.11256208,-2.133440831,-0.892769697,0.709105875,2.418974711
13.12249808,-2.367587904,-0.399166462,0.795959247,2.529497474
13.13243408,-2.677372804,0.054599399,0.790296804,2.792109465
13.14236908,-2.999487728,0.448512138,0.683981559,3.10900636
13.15230508,-3.221645671,0.739570015,0.375747925,3.326732802
13.16224108,-3.480850402,0.936043478,-0.015040199,3.604542012
13.17217708,-3.807019785,1.029462688,-0.425333483,3.966623456
13.18211308,-4.150979907,1.109566034,-0.796686056,4.369951904
13.19204808,-4.338385507,1.144794778,-1.140743242,4.629626231
13.20198408,-4.436509387,1.064090338,-1.406824883,4.774312521
13.21192008,-4.542783701,0.968530023,-1.599167873,4.912460895
13.22185608,-4.662800142,0.944079891,-1.723934006,5.060132455
13.23179108,-4.66588981,0.850476055,-1.757297634,5.057858461
13.24172708,-4.527445285,0.731460366,-1.68685038,4.886538579
13.25166308,-4.385821629,0.539591001,-1.5453922,4.681327468
13.26159908,-4.21777616,0.333547839,-1.371787198,4.447773601
13.27153508,-4.028274332,0.156065694,-1.208264549,4.208474049
13.28147008,-3.753473323,-0.056632476,-1.089004154,3.908669757
13.29140608,-3.332932218,-0.286469713,-1.044292835,3.504432848
13.30134208,-2.882031784,-0.545828664,-0.94294597,3.081100978
13.31127808,-2.336025218,-0.789181155,-0.895875299,2.623435394
13.32121408,-1.694248862,-1.053034861,-0.856797772,2.171051369
13.33114908,-1.023063349,-1.270625689,-0.732720441,1.788302967
13.34108508,-0.623516672,-1.273848236,-0.462137613,1.491654632
13.35102108,-0.239556917,-1.064718329,-0.175870232,1.105415295
13.36095708,0.179548112,-0.650199856,-0.003038232,0.674541776
13.37089208,0.731782547,-0.094434287,-0.035800144,0.738718608
13.38082808,1.807693031,0.396509341,-0.306553729,1.875886175
13.39076408,3.165543975,0.836053605,-0.62700629,3.333585334
13.40070008,4.658919929,1.142685102,-0.905789838,4.881774204
13.41063608,6.018325648,1.392755605,-1.185562735,6.290116913
13.42057108,6.753276801,1.77087253,-1.469910493,7.134660043
13.43050708,6.816208629,2.058612258,-1.480219134,7.272525915
13.44044308,6.703039863,1.98470696,-0.957333044,7.05594017
13.45037908,6.447571503,1.995030512,-0.832698473,6.800346445
13.46031508,6.388757869,1.554898311,-1.027788484,6.655094667
13.47025008,6.605808268,0.511053372,-0.525968742,6.646391618
13.48018608,6.505775272,-0.431811029,-0.172056623,6.522359706
13.49012208,5.834621919,-1.153923451,0.173541852,5.950165464
13.50005808,4.596407347,-1.296646968,1.075112339,4.895316169
13.50999308,3.203142157,-0.883232449,2.118747947,3.940724819
13.51992908,2.418002597,-0.269630901,2.749400561,3.671326848
13.52986508,2.474491378,0.068313605,3.057304412,3.933812985
13.53980108,2.968339026,0.086308704,3.082469659,4.280199173
13.54973708,3.463773608,-0.03211437,2.943960814,4.54595031
13.55967208,3.85146681,-0.364444088,2.718323779,4.728202645
13.56960808,3.805773743,-0.794916104,2.303829864,4.51922974
13.57954408,3.148522146,-0.963471743,1.637922049,3.677534247
13.58948008,2.358475018,-0.945863438,1.231599033,2.823809171
13.59941508,1.521395811,-0.759932505,1.025977017,1.986144875
13.60935108,0.686088311,-0.384710245,0.987786512,1.262711898
13.61928625,0.010623221,0.074202044,1.129450514,1.131935184
13.62922225,-0.525923134,0.493777481,1.204797735,1.40426099
13.63915825,-1.246163862,0.856931089,1.177520474,1.916718479
13.64909325,-2.017968262,1.161107047,1.063704422,2.559654777
13.65902925,-2.704351857,1.380434352,0.716527162,3.119700169
13.66896525,-3.274202784,1.551622408,0.284841245,3.634428497
13.67890125,-3.863717896,1.839533167,-0.245939153,4.286336935
13.68883725,-4.283043365,2.071990687,-0.750115907,4.816666872
13.69877225,-4.427950233,2.199495072,-1.074666197,5.059587856
13.70870825,-4.447476425,2.303297475,-1.231225981,5.157629613
13.71864425,-4.360205562,2.310138133,-1.316685376,5.107033495
13.72858025,-4.203559824,2.232005591,-1.244595639,4.919429078
13.73851525,-4.117891098,2.165421007,-1.185639845,4.801230788
13.74845125,-4.117599322,2.013423221,-1.09909294,4.713438505
13.75838725,-4.117593475,1.846069477,-0.860942936,4.593884117
13.76832325,-3.971805432,1.883268878,-0.543761856,4.429177916
13.77825925,-3.768331098,1.972398571,-0.312697472,4.264792503
13.78819425,-3.414568119,2.063966553,-0.172756571,3.993629703
13.79813025,-2.855939169,2.065497062,-0.190210437,3.529709147
13.80806625,-2.019721842,1.912140383,-0.342752087,2.802326918
13.81800225,-1.125391377,1.44520396,-0.509556193,1.901254258
13.82793725,-0.637837088,0.837564233,-0.805007814,1.325287733
13.83787325,-0.468581244,0.369980816,-1.032411293,1.192613627
13.84780925,-0.175612351,-0.120612271,-1.2348495,1.253092297
13.85774525,0.186990448,-0.565074628,-1.183070067,1.324360051
13.86768125,0.629712381,-1.003424891,-0.937396962,1.510666164
13.87761625,1.276308598,-1.525281286,-0.644857839,2.090762605
13.88755225,1.968235354,-2.02174761,-0.212790118,2.829610121
13.89748825,2.353782043,-2.215502994,0.376705114,3.254327913
13.90742425,2.602871675,-2.087388745,0.880274343,3.45065438
13.91735925,2.922857044,-1.935970418,1.140021111,3.686559764
13.92729525,3.507620709,-1.797539341,0.978328056,4.060994522
13.93723125,4.151080479,-1.599815744,0.462215381,4.47264157
13.94716725,4.594063783,-1.355111231,0.069207663,4.790254501
13.95710325,4.811015364,-0.964085408,-0.135180573,4.908523535
13.96703825,4.58213137,-0.404650127,-0.051668318,4.600254257
13.97697425,4.04599198,0.090842342,0.304183853,4.05842719
13.98691025,3.698655092,0.4342347,0.678675796,3.785394312
13.99684625,4.308613824,0.123671242,0.777131213,4.379883627
14.00678125,5.192402344,-0.812863255,0.528131079,5.282112381
14.01671725,5.133109238,-1.642097545,0.145082284,5.391321143
14.02665325,3.897155199,-1.898746458,-0.004014698,4.335097793
14.03658925,2.121015497,-1.642876979,0.041420506,2.683182284
14.04652525,1.283376127,-1.182692629,0.121074786,1.749421402
14.05646025,0.781639416,-1.233364307,-0.052948877,1.461147246
14.06639625,0.748618435,-1.427756453,-0.323164499,1.644187746
14.07633225,1.252853077,-1.695114834,-0.20308257,2.117616033
14.08626825,1.98631436,-2.144194737,0.115352116,2.925119129
14.09620325,2.384923144,-2.780170656,0.511178795,3.698447112
14.10613925,2.293863285,-3.442902557,0.688408486,4.193959112
14.11607525,1.675751195,-3.994579752,0.730903126,4.393065996
14.12601125,1.041537042,-4.324563859,0.816769488,4.522583817
14.13594625,0.412228703,-4.254948079,0.770812712,4.343807995
14.14588225,-0.1815999,-3.798417946,0.743294545,3.874718596
14.15581825,-0.646591539,-3.19355974,0.658084241,3.324150914
14.16575425,-1.075726882,-2.2761528,0.642359909,2.598208257
14.17569025,-1.434311475,-1.474728599,0.685418805,2.168380221
14.18562525,-1.801911889,-1.006176006,0.427682894,2.107650177
14.19556125,-2.33836235,-0.885288476,0.106222858,2.502590151
14.20549725,-2.756729461,-0.795795818,-0.078518742,2.870368181
14.21543325,-3.388024099,-0.715947703,-0.21836193,3.46972194
14.22536825,-4.475821972,-0.58405966,-0.327687905,4.52564773
14.23530425,-5.020529287,0.31528523,-0.548124427,5.060193621
14.24524025,-4.85203709,1.878520062,0.225744642,5.207884618
14.25517625,-4.627404606,3.194424543,0.597094274,5.654532971
14.26511225,-4.828270497,3.973679172,0.053128971,6.253410657
14.27504725,-4.729379463,4.580958126,-1.098369566,6.675224577
14.28498325,-4.135560799,5.644402054,-3.723787009,7.926457428
14.29491925,-5.781640298,4.82649616,-4.996370931,9.038039179
14.30485525,-7.921364547,3.310858979,-3.651914204,9.329859635
14.31479025,-8.577146155,2.986044395,-2.605900533,9.448524481
14.32472625,-7.935804831,2.631654887,-2.443498212,8.710527496
14.33466225,-7.356914109,1.639813769,-2.701067476,8.00680585
14.34459825,-7.592257522,1.239337823,-2.91593511,8.226846911
14.35453325,-7.493902677,1.200583208,-2.441513813,7.972513222
14.36446925,-6.690726796,0.909254459,-1.982034198,7.037117897
14.37440525,-5.529989585,0.693138445,-1.47657398,5.765543898
14.38434125,-4.528231736,0.727101851,-0.81681802,4.658406534
14.39427725,-3.641548845,0.89089581,-0.352180211,3.765448743
14.40421225,-2.592830837,1.063414984,-0.020465255,2.802506379
14.41414825,-1.344716343,0.980822771,0.175801874,1.673673102
14.42408425,-0.098774675,0.462154131,0.136677496,0.491958957
14.43402025,1.003259999,-0.008273664,-0.053402694,1.004714351
14.44395525,2.13523885,-0.248460911,-0.203964842,2.15930068
14.45389125,3.078411691,-0.332378542,-0.3358121,3.114460435
14.46382725,3.793119199,-0.184506259,-0.404746022,3.819111829
14.47376325,4.45890013,0.049827633,-0.121189392,4.46082504
14.48369825,4.880966774,0.127823642,0.576680474,4.916577662
14.49363425,5.033808898,-0.031468253,1.335235083,5.207981855
14.50357025,5.039115247,-0.414967832,1.766391224,5.355839684
14.51350625,4.758173491,-0.654536005,1.965465528,5.189574847
14.52344225,4.51074973,-0.444669641,2.156640244,5.01953099
14.53337725,4.64731613,-0.101902936,2.153087475,5.122862198
14.54331325,4.952203403,0.014066354,1.952611009,5.32327025
14.55324925,5.161094597,-0.035626793,1.651053725,5.418869357
14.56318525,5.25303797,-0.337513567,1.059413735,5.369420898
14.57312025,5.154701836,-0.804396487,0.255670016,5.223348723
14.58305625,4.735043076,-0.964383324,-0.056848458,4.832587285
14.59299225,4.308988046,-0.916553392,0.073598903,4.40600328
14.60292825,3.992272441,-0.552780565,0.406876674,4.050846112
14.61286421,4.130419343,-0.05878469,0.728610944,4.194602901
14.62280021,4.376456144,0.157918969,0.883129538,4.467462877
14.63273621,4.415722536,0.132530651,0.78226156,4.486435449
14.64267221,4.072099798,-0.159092798,0.226709999,4.081507652
14.65260721,3.671622244,-0.650434329,-0.448730532,3.755693519
14.66254321,3.47244386,-1.059755797,-0.609031291,3.681286164
14.67247921,3.312640625,-1.337501172,-0.483750091,3.605067468
14.68241521,2.963241423,-1.573955263,-0.026296171,3.355417469
14.69235121,2.514359449,-1.770398321,0.660504988,3.145247286
14.70228621,1.821298333,-1.746762998,1.174646568,2.783541476
14.71222221,0.799348294,-1.46824199,1.430138317,2.199997236
14.72215821,-0.370536886,-0.903626368,1.454237031,1.751754418
14.73209421,-1.355792139,-0.277718624,1.273680859,1.880841006
14.74202921,-2.154891926,0.294148569,1.090096414,2.432774709
14.75196521,-2.772224582,0.755172287,0.805059854,2.983896058
14.76190121,-3.294418947,1.10220629,0.574567839,3.521105381
14.77183721,-3.735248721,1.362357539,0.458723972,4.002315424
14.78177221,-4.011370032,1.555588574,0.298709032,4.312791721
14.79170821,-4.189516566,1.574017683,0.253952835,4.482641271
14.80164421,-4.588990154,1.653280345,0.203204631,4.88195234
14.81158021,-4.962322594,1.722418993,-0.087945705,5.253485239
14.82151521,-5.137609255,1.553795818,-0.4541012,5.386605444
14.83145121,-5.236561101,1.514460575,-0.700732736,5.496015772
14.84138721,-5.343242966,1.624171736,-1.030806817,5.678973667
14.85132321,-5.421263534,1.664029866,-1.567688656,5.883599359
14.86125921,-5.393182281,1.540220484,-2.170326821,6.014067905
14.87119421,-5.151632048,1.306127205,-2.654175146,5.94053253
14.88113021,-4.944893214,1.043589123,-2.841712309,5.79796309
14.89106621,-4.919472443,0.793190152,-2.606840181,5.623697669
14.90100221,-4.682358493,0.549967616,-2.064069464,5.146584128
14.91093721,-4.112524524,0.375447232,-1.439272837,4.373251065
14.92087321,-3.387396693,0.141862223,-0.819900087,3.488096529
14.93080921,-2.590251045,-0.136128735,-0.289459394,2.609926867
14.94074521,-1.596498034,-0.38145203,0.312017952,1.670828186
14.95068021,-0.440342116,-0.710010001,0.880967311,1.214132935
14.96061621,0.649192965,-1.048456199,1.287894856,1.783083023
14.97055221,1.93618618,-1.508212825,1.386624507,2.81890943
14.98048821,1.928281329,-1.855287759,1.706628587,3.173789956
14.99042321,2.193242644,-1.909691277,1.062487031,3.096144822
15.00035921,2.664423561,-2.118921171,0.702983183,3.476084751
15.01029521,3.085715448,-2.517102085,0.432561811,4.005565185
15.02023121,3.760098218,-2.594723288,0.215884537,4.573569032
15.03016621,4.414541983,-2.684401157,0.363461719,5.179410673
15.04010221,4.868282409,-2.638780012,0.634215907,5.573649019
15.05003821,4.937899359,-2.248248279,1.185162785,5.553564732
15.05997421,4.423616277,-1.565971768,1.730954758,5.001685008
15.06990921,3.854842408,-0.793231814,2.03774296,4.431864514
15.07984521,3.878617771,-0.176961012,1.857300809,4.304016416
15.08978121,4.669647816,-0.048980079,0.930397845,4.761685618
15.09971721,5.203961704,-0.374136725,-0.307968792,5.226474958
15.10965321,4.85939815,-0.499982254,-1.132270626,5.014555753
15.11958821,3.563078626,-0.06851358,-1.427163838,3.838882653
15.12952421,2.273008021,0.585012464,-1.67585586,2.883972592
15.13946021,1.80813742,0.876493826,-2.03915097,2.862820119
15.14939621,1.82394069,0.830687908,-2.356511523,3.093533352
15.15933121,2.118697661,0.468423954,-2.298649231,3.161026585
15.16926721,2.549860818,-0.22114842,-1.706867153,3.076376488
15.17920321,3.052928941,-1.133993801,-1.039608046,3.418640365
15.18913921,3.228417331,-2.183657596,-0.496247966,3.929033088
15.19907421,2.947680813,-3.103507941,0.075841859,4.280926968
15.20901021,2.206135755,-3.601900337,0.600473964,4.266296988
15.21894621,1.323121991,-3.792869816,0.827214954,4.101316596
15.22888221,0.093232099,-3.626857715,0.944333514,3.748940503
15.23881721,-0.992830321,-3.110368479,0.898039353,3.386233719
15.24875321,-1.688781715,-2.61047978,0.62783082,3.171870095
15.25868921,-2.069114442,-2.110807428,0.255369542,2.96680909
15.26862521,-2.346328597,-1.620496615,-0.058274594,2.852133078
15.27856021,-2.717227426,-1.069581312,-0.278535626,2.933412887
15.28849621,-3.026079696,-0.458965206,-0.491744478,3.099938712
15.29843221,-3.379193049,0.09551456,-0.724273407,3.457259126
15.30836821,-3.755322213,0.44836625,-0.98665683,3.908576328
15.31830321,-4.110530623,0.681263773,-1.279286585,4.358572759
15.32823921,-4.52562914,0.962576973,-1.602279761,4.896445034
15.33817521,-4.888896183,1.211422923,-1.931437072,5.394376753
15.34811121,-5.168589558,1.360063092,-2.218317844,5.78662455
15.35804621,-5.275904676,1.456997502,-2.463543051,6.002254263
15.36798221,-5.283446415,1.526556272,-2.709194521,6.130653719
15.37791821,-5.208823079,1.656899918,-2.891297867,6.183587839
15.38785421,-5.065227742,1.789891622,-2.854122439,6.083276995
15.39778921,-4.872584791,1.781807992,-2.600198913,5.803271203
15.40772521,-4.614013898,1.718909786,-2.237633682,5.408398986
15.41766121,-4.249416613,1.672843082,-1.773499099,4.899106509
15.42759721,-3.543054836,1.461121397,-1.251823529,4.031770759
15.43753221,-2.854680848,1.140973768,-0.593353225,3.130988971
15.44746821,-2.474797772,1.131927103,0.176689555,2.727105091
15.45740421,-1.8330641,1.206599993,0.650283398,2.288859112
15.46734021,-1.159363115,1.218388711,1.026135622,1.970164511
15.47727521,-0.714241485,1.108305521,1.474037165,1.977692492
15.48721121,-0.289701469,1.024156486,1.853882965,2.13768695
15.49714721,0.429677964,0.976176866,2.076292484,2.334209696
15.50708321,1.233646728,0.810019462,1.993062047,2.479982278
15.51701821,1.994912106,0.689777027,1.7155988,2.720063584
15.52695421,2.712682385,0.755877753,1.384778395,3.138089882
15.53689021,3.449043303,0.865037961,0.937968162,3.677495703
15.54682621,4.026921871,1.111292863,0.391570418,4.195759642
15.55676121,4.56284199,1.342987906,-0.213437039,4.761165709
15.56669721,5.073918459,1.461217145,-0.758021416,5.334266635
15.57663321,5.290630304,1.497388898,-1.18573647,5.624847865
15.58656921,5.168881334,1.582101604,-1.227106617,5.543119192
15.59650421,4.770998189,1.718037674,-0.811655513,5.135451474
15.60644021,4.525789939,1.702294338,-0.285678585,4.843778776
15.61637512,4.510181966,1.291634443,0.04246248,4.691680292
15.62631113,4.786298599,0.566056083,0.5126243,4.846839943
15.63624612,4.878724952,0.075405401,0.952409615,4.971390872
15.64618212,4.350772249,-0.29481252,1.170236451,4.515040082
15.65611812,3.605770901,-0.419597072,1.089460237,3.790061887
15.66605413,3.18929478,-0.379752975,0.756416867,3.299693925
15.67598912,3.387023056,-0.401846387,0.535887374,3.452619437
15.68592512,3.881605114,-0.610686419,0.404920707,3.950159103
15.69586113,4.350534852,-1.106930548,0.357455642,4.503356889
15.70579713,4.471589758,-1.707618228,0.340585767,4.798653315
15.71573212,4.165586836,-2.145082052,0.577604334,4.72092337
15.72566813,3.805443376,-2.36668831,1.002305734,4.592083364
15.73560413,3.289920099,-2.339319247,1.332186345,4.250965685
15.74554013,2.461853791,-2.041673751,1.653832322,3.600599553
15.75547512,1.742046341,-1.516481227,1.747303573,2.896119912
15.76541113,1.064763352,-0.933077039,1.815012576,2.301874108
15.77534713,0.411054583,-0.365975474,1.986942351,2.06175746
15.78528312,-0.257605518,0.15167385,2.18748723,2.207819272
15.79521813,-1.022919508,0.579614022,2.440011517,2.708500127
15.80515413,-1.838286833,0.878422822,2.675679451,3.363061947
15.81509013,-2.64442082,1.086940379,2.814892884,4.012234143
15.82502612,-3.386293323,1.187626802,2.860518124,4.589117979
15.83496113,-4.027619444,1.21106098,2.794073288,5.049280407
15.84489713,-4.585171922,1.254318682,2.486632537,5.364742145
15.85483312,-5.051038304,1.287378254,2.037772197,5.596681717
15.86476912,-5.372448639,1.304384296,1.602244678,5.756023868
15.87470413,-5.55326969,1.344609193,1.219199427,5.842364707
15.88464012,-5.485418015,1.305492782,0.775133292,5.691656509
15.89457612,-5.26285603,1.163551476,0.385908047,5.403742282
15.90451212,-5.249637229,1.158432677,0.005358388,5.375935827
15.91444713,-5.244020979,1.145667036,-0.266054744,5.374299406
15.92438312,-5.058903978,0.976512496,-0.472614654,5.173920248
15.93431912,-4.871745715,0.727790361,-0.627854209,4.965660684
15.94425512,-4.757717993,0.554934241,-0.693254732,4.83987961
15.95419012,-4.555690845,0.366185535,-0.624557476,4.612860605
15.96412612,-4.142780356,0.101779559,-0.383104928,4.16170128
15.97406212,-3.650403283,-0.218045449,-0.077403687,3.657728705
15.98399713,-3.136548802,-0.46339608,0.149624986,3.174123809
15.99393312,-2.571179182,-0.655291465,0.301366664,2.670429021
16.00386912,-1.956475434,-0.878174462,0.404969458,2.182426807
16.01380512,-1.304488669,-1.071406959,0.428090518,1.741512288
16.02374012,-0.667629821,-1.282332692,0.38924096,1.49720247
16.03367612,-0.13422342,-1.584041418,0.40469347,1.640420661
16.04361212,0.383437598,-1.890636078,0.393971942,1.968944657
16.05354812,0.902330625,-2.194954416,0.252631291,2.386597582
16.06348312,1.30942138,-2.519214392,0.07598687,2.840211173
16.07341912,1.757316345,-2.723766075,0.00035785,3.241459933
16.08335512,2.335676724,-2.890891485,0.014138567,3.716562826
16.09329112,2.882220649,-3.010998557,0.053381571,4.168471875
16.10322612,3.273741438,-2.931577581,0.134469588,4.396545484
16.11316212,3.602117561,-2.683297788,0.289251215,4.501000356
16.12309812,3.769630934,-2.391191944,0.586676874,4.502455557
16.13303412,3.713218752,-1.910767164,0.946511017,4.281928042
16.14296912,3.465282775,-1.260859669,1.16984308,3.868654113
16.15290512,3.219927174,-0.564978734,1.188133755,3.478332042
16.16284112,3.442992604,-0.073213133,0.919782225,3.564485597
16.17277713,4.461248372,-0.001214174,0.281621786,4.47012856
16.18271212,5.614213464,-0.385102593,-0.402964375,5.641815055
16.19264812,6.078639092,-0.867841701,-0.990871503,6.219712917
16.20258412,4.763684492,-0.837399049,-1.156910208,4.973164821
16.21252013,2.533652921,-0.146173375,-0.827059418,2.669230425
16.22245512,0.898338146,0.491182487,0.061022703,1.025668285
16.23239112,-0.025076369,0.592945674,0.820079012,1.012295897
16.24232713,-0.3737014,0.335287532,1.094287698,1.20396679
16.25226212,-0.19588114,-0.266360992,1.382678221,1.421659827
16.26219812,0.309787824,-1.197436383,1.63443243,2.049680891
16.27213412,0.636485211,-2.14078011,1.774291981,2.85239635
16.28207013,0.663414563,-2.824627914,1.772023262,3.39981002
16.29200512,0.544252401,-3.268080749,1.576422789,3.669015027
16.30194112,0.240940953,-3.513400682,1.305962167,3.756005069
16.31187713,-0.283298183,-3.530779776,1.003295082,3.681475887
16.32181313,-0.915616084,-3.067726782,0.666836354,3.270163779
16.33174812,-1.42353798,-2.359591252,0.22372326,2.76481163
16.34168413,-1.590757238,-1.665816191,-0.240066228,2.31583332
16.35162013,-1.426201971,-1.140870711,-0.344772885,1.858630244
16.36155613,-1.302110606,-0.621257746,-0.351717038,1.484977472
16.37149112,-1.243603367,-0.098309383,-0.443844599,1.324089157
16.38142713,-1.406113277,0.37674239,-0.662798851,1.599497325
16.39136313,-1.839207185,0.777834487,-0.991375533,2.229469669
16.40129912,-2.402495196,1.076854956,-1.275380645,2.925439378
16.41123413,-2.989301294,1.212168881,-1.639418351,3.618420671
16.42117013,-3.405399685,1.406447153,-2.028158205,4.205742064
16.43110613,-3.528613383,1.627639135,-2.552555215,4.649285933
16.44104112,-3.608721991,1.961147798,-3.406965569,5.33632734
16.45097713,-3.596871439,2.208364421,-3.860794873,5.720148129
16.46091313,-3.360297772,2.344199772,-3.794502066,5.58436385
16.47084912,-3.216676707,2.33945461,-3.796831012,5.498725547
16.48078413,-3.226298885,1.831626708,-3.541574906,5.128997339
16.49072013,-3.177501531,1.228983427,-2.792189316,4.404910603
16.50065613,-3.498875613,1.067031195,-2.073859457,4.204946989
16.51059212,-3.851249294,0.869221936,-1.459566915,4.209275885
16.52052713,-3.805031732,0.32341593,-0.859047342,3.91418276
16.53046313,-3.596568553,-0.155364759,-0.507882281,3.635572579
16.54039912,-3.421856089,-0.351466485,-0.402369275,3.463311828
16.55033512,-3.29612458,-0.469392399,-0.37738573,3.350699399
16.56027013,-3.22041834,-0.50574337,-0.434291491,3.288689669
16.57020612,-2.957129329,-0.602708185,-0.647079781,3.086516364
16.58014212,-2.305357157,-0.669850739,-0.749928796,2.515107321
16.59007713,-1.738097132,-0.668542279,-0.555501274,1.943325007
16.60001313,-1.201337938,-0.531415716,-0.237702107,1.334959848
16.60994912,-0.460990974,-0.365385782,0.017596026,0.588497296
16.61988533,0.415182132,-0.221988227,0.213056605,0.516766961
16.62982033,1.36524124,-0.099194651,0.248797783,1.39126689
16.63975633,2.421689851,-0.016482131,0.088285318,2.423354636
16.64969233,3.53581189,0.057749441,-0.065687621,3.536893493
16.65962833,4.339208211,0.244646333,-0.114208986,4.347599731
16.66956333,4.874700898,0.561261659,-0.149160169,4.909172257
16.67949933,4.944762236,0.97595701,-0.084882275,5.04087003
16.68943533,4.859591693,1.496018603,0.085896767,5.085379173
16.69937133,4.667130005,1.974385163,0.02514712,5.067635704
16.70930633,4.772450053,2.170104335,-0.104688001,5.243719282
16.71924233,5.192257333,2.014551441,-0.198681371,5.572919164
16.72917833,5.532974589,1.642285241,-0.271780922,5.777955822
16.73911333,5.569319712,1.182474528,-0.07635064,5.693979055
16.74904933,5.120240686,0.820427506,0.408275949,5.201601217
16.75898533,4.42859752,0.684225681,1.009899439,4.593532154
16.76892133,3.920125986,0.617938428,1.407152327,4.210619113
16.77885633,3.855994309,0.321632529,1.516630331,4.15599653
16.78879233,4.070906382,-0.050095728,1.644370943,4.390756671
16.79872833,4.392457049,-0.478600156,1.660805712,4.720276756
16.80866433,4.504054669,-0.989761994,1.619355385,4.887581112
16.81859933,4.394801783,-1.440690202,1.63563988,4.905628277
16.82853533,4.151364654,-1.682447719,1.714029408,4.796077108
16.83847133,3.739806041,-1.722385956,1.837923136,4.508960419
16.84840633,3.24067368,-1.514255484,1.879563498,4.040754201
16.85834233,2.744028139,-1.083667693,1.795247818,3.453540332
16.86827833,2.280157996,-0.541513273,1.579955676,2.826414169
16.87821433,1.825904185,-0.067919795,1.380420027,2.289999703
16.88814933,1.233919208,0.365629611,1.180041794,1.74606422
16.89808533,0.590966976,0.720966075,1.006174836,1.371649317
16.90802133,-0.051433278,0.950245049,0.940138137,1.337711012
16.91795733,-0.685001314,1.121709093,0.923213371,1.606169673
16.92789233,-1.391615691,1.290533704,0.886308085,2.094663098
16.93782833,-2.037889726,1.42151075,0.838778992,2.622448769
16.94776433,-2.662011584,1.566037841,0.692321443,3.165136517
16.95769933,-3.160000815,1.686375586,0.470125457,3.6125456
16.96763533,-3.474232523,1.722681533,0.408847222,3.899369095
16.97757133,-3.851529375,1.743101764,0.473239721,4.254014354
16.98750733,-4.229636067,1.705593776,0.44523386,4.582259768
16.99744233,-4.495841085,1.584983989,0.32208218,4.777917772
17.00737833,-4.667431136,1.31205175,0.160106705,4.850982103
17.01731433,-4.800392143,0.997452545,0.015861742,4.902950938
17.02725033,-4.96043979,0.761991017,-0.169310368,5.021479785
17.03718533,-5.115502687,0.477866038,-0.375809321,5.151500397
17.04712133,-5.208482772,0.134182343,-0.617663097,5.24669471
17.05705733,-5.218831758,-0.259551617,-0.853325184,5.294500527
17.06699233,-5.104878881,-0.707882784,-1.029138021,5.255474431
17.07692833,-4.924015145,-1.073365703,-1.172572633,5.174259915
17.08686433,-4.602029445,-1.359226647,-1.279126956,4.966118993
17.09680033,-4.100307936,-1.614296958,-1.330295355,4.603060457
17.10673533,-3.428805504,-1.807010661,-1.271144337,4.078946266
17.11667133,-2.652391745,-1.803433042,-1.034231531,3.370042665
17.12660733,-1.876110132,-1.793978679,-0.753289776,2.702886275
17.13654233,-1.045393866,-1.954513108,-0.51758325,2.276150752
17.14647833,-0.150531304,-2.324477552,-0.295237101,2.347982221
17.15641433,0.603778226,-2.72246887,-0.057515004,2.78921008
17.16635033,1.175188605,-3.020640616,0.114163304,3.243203855
17.17628533,1.637011637,-3.190605142,0.210247822,3.592209963
17.18622133,2.096115714,-3.246988965,0.182319619,3.869092771
17.19615733,2.498856141,-3.148557814,0.021095548,4.019719311
17.20609333,2.695911402,-2.948952875,-0.043653558,3.995768634
17.21602833,2.584848803,-2.635208532,0.077042329,3.692113604
17.22596433,2.260823008,-2.192417163,0.355093769,3.169243645
17.23590033,1.896253206,-1.724458063,0.697845892,2.656411248
17.24583533,1.863758474,-1.340305204,1.03252122,2.517163832
17.25577133,2.293759205,-1.226325721,1.267465854,2.893384827
17.26570733,2.932758719,-1.397094824,1.350151915,3.517933746
17.27564333,3.027887655,-1.553586488,1.268347614,3.631864576
17.28557833,2.410462028,-1.475797908,1.09621611,3.031500687
17.29551433,1.548238624,-1.179403862,0.855822456,2.126139315
17.30545033,0.992387686,-0.713983623,0.642197356,1.380950172
17.31538633,0.963185522,-0.311503397,0.419049481,1.095610872
17.32532133,1.401458309,-0.073174396,0.158307498,1.412268086
17.33525733,1.956129279,-0.064601793,-0.154056609,1.963249496
17.34519333,2.491005085,-0.243783138,-0.494352263,2.551258652
17.35512833,3.058088524,-0.845745657,-0.735637617,3.257046797
17.36506433,3.39148682,-1.717501484,-0.655386921,3.857658126
17.37500033,3.390179967,-2.504685523,-0.267546369,4.223547187
17.38493633,2.782461888,-3.040821404,0.236146821,4.12849298
17.39487133,1.729808704,-2.983804327,0.812706842,3.543419087
17.40480733,0.676841524,-2.356721438,1.483572512,2.865874698
17.41474333,0.118169305,-1.516625945,1.983990092,2.500066984
17.42467833,-0.155851686,-0.680678029,2.112532942,2.224951181
17.43461433,-0.319642137,-0.058754431,1.90495971,1.932484068
17.44455033,-0.442973948,0.454052375,1.571074925,1.694303957
17.45448633,-0.786182703,0.922426336,1.087645846,1.628473848
17.46442133,-1.355312083,1.250986353,0.469095726,1.903125981
17.47435733,-2.001009582,1.494335774,-0.13066009,2.500830025
17.48429333,-2.585252845,1.730237889,-0.661695482,3.180423924
17.49422833,-3.106098842,1.952682345,-1.132806889,3.839800751
17.50416433,-3.475650473,2.14926018,-1.575400695,4.379652142
17.51410033,-3.762164624,2.250412041,-1.943710962,4.795440472
17.52403633,-4.022789644,2.32428284,-2.253303489,5.163574717
17.53397133,-4.239428399,2.372654516,-2.526331623,5.475819032
17.54390733,-4.395204071,2.307992205,-2.750244314,5.675252473
17.55384333,-4.475151297,2.200439105,-2.893102902,5.765323563
17.56377833,-4.48056348,2.072649376,-2.885773417,5.718305059
17.57371433,-4.382607999,1.949669275,-2.716220536,5.512378539
17.58365033,-4.221284489,1.799774732,-2.436364024,5.195604053
17.59358633,-4.075874761,1.562381577,-2.086660182,4.83817548
17.60352133,-3.787262043,1.223793585,-1.763104504,4.353109465
17.61345733,-3.423452963,0.841452047,-1.537126576,3.845884794
17.62339383,-2.994876029,0.513214503,-1.259296124,3.289148566
17.63332883,-2.514951187,0.29458097,-0.941855537,2.701638257
17.64326483,-1.916664666,0.19802736,-0.655143749,2.035198175
17.65320083,-1.275176577,0.240527262,-0.400900308,1.358178826
17.66313683,-0.674174024,0.397647794,-0.250930994,0.821949358
17.67307183,-0.070745462,0.58357668,-0.195766607,0.619589563
17.68300783,0.547122799,0.798255157,-0.252194577,1.000078376
17.69294383,1.253109185,0.959916344,-0.368415042,1.620941597
17.70287883,2.124689303,0.913773334,-0.34171713,2.337959995
17.71281483,2.943127586,0.861737792,-0.167847907,3.071280666
17.72275083,3.729037809,0.763067782,0.068410011,3.806924658
17.73268683,4.568465257,0.642170459,0.314757373,4.624103146
17.74262183,5.239426821,0.693119003,0.494910087,5.308195867
17.75255783,5.665742052,0.896890668,0.548333831,5.762440096
17.76249383,5.765817148,1.190804179,0.441827309,5.904055669
17.77242883,5.391999974,1.58962317,0.196575277,5.624873988
17.78236483,4.848759141,1.931799599,-0.240855657,5.22497142
17.79230083,4.660143752,1.825967919,-0.685381383,5.051816135
17.80223683,4.644645122,1.288840058,-0.876683568,4.899225559
17.81217183,4.616565038,0.492864731,-0.830164801,4.716435305
17.82210783,4.488798113,-0.357424505,-0.480997807,4.528622271
17.83204383,4.017584453,-1.074064811,-0.001679247,4.15867802
17.84197883,2.880324982,-1.30455065,0.540645911,3.207868825
17.85191483,1.513940027,-0.89057626,1.093711163,2.069141026
17.86185083,0.920120194,-0.33009959,1.42583652,1.728755822
17.87178583,1.348011834,-0.091239076,1.442160192,1.976179773
17.88172183,2.110591666,-0.163032359,1.077695566,2.375416693
17.89165783,2.709307373,-0.507056508,0.596582642,2.820170844
17.90159383,2.810150793,-0.961594202,0.23650467,2.979520993
17.91152883,2.553512989,-1.457341318,0.135735656,2.943245908
17.92146483,2.159686058,-1.940048851,0.241429195,2.913129154
17.93140083,1.743322204,-2.267104672,0.499092016,2.903106739
17.94133583,1.154944959,-2.316265723,0.70317848,2.682059793
17.95127183,0.618257101,-2.041098093,0.793402772,2.275480438
17.96120783,0.242061279,-1.594471097,0.71419997,1.763806491
17.97114383,-0.089470001,-1.126509657,0.57402233,1.267489852
17.98107883,-0.470855811,-0.69092162,0.490591991,0.969411358
17.99101483,-1.008786203,-0.223324169,0.493365837,1.144959884
18.00095083,-1.60163072,0.150868689,0.602899389,1.717984283
18.01088583,-2.19508861,0.43116345,0.766829588,2.364813638
18.02082183,-2.778331414,0.65211628,0.908787194,2.995041779
18.03075783,-3.252756951,0.883271333,1.001989984,3.516330468
18.04069383,-3.583397115,0.968552389,0.95839731,3.833712825
18.05062883,-3.810633364,1.015471909,0.76924098,4.01793996
18.06056483,-4.064646353,1.132812956,0.475054624,4.24620914
18.07050083,-4.250176166,1.129125117,0.168764019,4.400841086
18.08043583,-4.358021042,1.138302029,-0.140062523,4.506406154
18.09037183,-4.459738036,1.254622152,-0.443608956,4.654044371
18.10030783,-4.346754627,1.2974571,-0.679562307,4.586880819
18.11024283,-4.090034963,1.292892471,-0.89702318,4.382306188
18.12017883,-3.846475627,1.22507851,-1.231459869,4.220507732
18.13011483,-3.470222502,1.132480834,-1.503333178,3.947780097
18.14005083,-3.125495811,1.04634857,-1.656460061,3.688824925
18.14998583,-2.830406132,0.93346354,-1.738243897,3.450223891
18.15992183,-2.44727142,0.715972846,-1.845829157,3.147830966
18.16985783,-2.113445107,0.540204958,-1.951576636,2.926964808
18.17979283,-1.833210865,0.42498382,-1.998998725,2.745408754
18.18972883,-1.525222229,0.355794594,-1.943698098,2.496168051
18.19966483,-1.04907001,0.291242503,-1.843321286,2.140841761
18.20959983,-0.363816682,0.10116721,-1.68113765,1.72302675
18.21953583,0.45081448,-0.294934727,-1.54333281,1.634654811
18.22947183,1.258518444,-0.936742659,-1.358686511,2.075423937
18.23940783,1.835419943,-1.642562837,-1.088812366,2.693007874
18.24934283,2.187337541,-2.27646431,-0.751872995,3.245311738
18.25927883,2.432166308,-2.716205333,-0.41464068,3.669486511
18.26921483,2.726016376,-3.00757589,-0.111548466,4.060679878
18.27914983,2.945205687,-3.233387464,0.126763542,4.375511402
18.28908583,2.94869472,-3.249811124,0.322396175,4.400001385
18.29902183,2.661875344,-3.022791222,0.548240202,4.064900298
18.30895683,2.179047943,-2.595870804,0.813942944,3.485584354
18.31889283,1.860863518,-2.155870311,0.966062352,3.007302163
18.32882883,2.254705067,-2.009397267,0.91779768,3.156536852
18.33876483,3.041666619,-2.310734549,0.725092163,3.888057178
18.34869983,3.200222642,-2.563070263,0.691849573,4.158053627
18.35863583,2.792872855,-2.409632893,0.909739047,3.799222894
18.36857183,2.147925553,-2.077284902,1.081624968,3.177830914
18.37850683,1.600518579,-1.759126935,1.08655534,2.61472557
18.38844283,1.229015148,-1.624348468,0.972363896,2.257094975
18.39837883,0.907556282,-1.647755311,0.944042396,2.10474987
18.40831383,0.831369401,-1.928117023,1.06662686,2.355101525
18.41824983,1.274691258,-2.535921641,1.252653687,3.10239869
18.42818583,1.691928102,-3.233195383,1.5205696,3.953265106
18.43812183,1.71180922,-3.793138495,1.880089163,4.566500379
18.44805683,1.458808969,-4.085067168,2.351916196,4.934309189
18.45799283,1.059058224,-4.02909762,2.660919324,4.943250308
18.46792883,0.628280983,-3.672898984,2.733655179,4.621449402
18.47786383,0.038481111,-2.938034661,2.595564995,3.920521153
18.48779983,-0.514169646,-2.047232699,2.141005958,3.006565925
18.49773583,-0.839448498,-1.333573012,1.507136207,2.180493134
18.50767183,-1.224818602,-0.734700893,0.912746855,1.695014109
18.51760683,-1.776209868,-0.147867605,0.462270344,1.841325663
18.52754283,-2.328330867,0.391859635,0.029751803,2.361263173
18.53747883,-2.841611736,0.836365846,-0.380992877,2.986539915
18.54741383,-3.304189644,1.258737715,-0.746142724,3.613698771
18.55734983,-3.633107219,1.585328098,-1.155648964,4.128953593
18.56728583,-3.910668699,1.808355229,-1.541720148,4.576065922
18.57722083,-4.102850305,2.005750212,-1.900156807,4.946413896
18.58715683,-4.234886867,2.15456419,-2.270596045,5.266120016
18.59709283,-4.211322003,2.26745609,-2.617086841,5.452131113
18.60702783,-4.153098353,2.358137634,-2.867322528,5.570509628
18.61696408,-4.068015518,2.463784541,-3.060602242,5.655640601
18.62690008,-3.864890848,2.533716948,-3.200756493,5.621560723
18.63683608,-3.479533024,2.517993493,-3.247127252,5.384354807
18.64677108,-3.028329704,2.464161687,-3.16799162,5.027827018
18.65670708,-2.501282735,2.352180198,-2.709955244,4.374131277
18.66664308,-1.876369749,2.176105917,-2.093776828,3.555292084
18.67657808,-1.353707022,2.047916823,-1.510130566,2.88218326
18.68651408,-0.873181086,1.971463309,-1.063521477,2.40420272
18.69645008,-0.528765466,1.866404924,-0.735491509,2.074610329
18.70638508,-0.301788833,1.786546576,-0.489342405,1.876774136
18.71632108,-0.120473108,1.766035421,-0.294268163,1.794432676
18.72625708,-0.037950768,1.806178895,-0.157674848,1.81344529
18.73619208,0.065956593,1.855335267,-0.054376785,1.857303438
18.74612808,0.273625719,1.855163067,0.013560853,1.875282628
18.75606408,0.527734017,1.791487766,0.044823586,1.868138314
18.76600008,0.83995019,1.713659863,0.024374703,1.908596493
18.77593508,1.260407095,1.589512365,-0.089453053,2.030560872
18.78587108,1.600869997,1.473241359,-0.272172686,2.19255623
18.79580708,1.99694986,1.318085492,-0.51885502,2.448339977
18.80574208,2.508367222,1.137616736,-0.711606145,2.844725165
18.81567808,3.099816009,0.909187947,-0.818207903,3.332408466
18.82561408,3.650848256,0.715999158,-0.813980366,3.808400166
18.83554908,4.100249464,0.622452186,-0.667362603,4.200579155
18.84548508,4.399792966,0.585711791,-0.432582861,4.459637248
18.85542108,4.40270371,0.623175194,-0.165214229,4.449656506
18.86535608,4.259180878,0.735920037,0.072162846,4.322893421
18.87529208,4.183024403,0.743456513,0.153330367,4.251344604
18.88522808,4.155852392,0.504340184,0.345124924,4.200545124
18.89516408,4.131941957,0.212341929,0.839160815,4.221637634
18.90509908,3.972293674,-0.045300719,1.374210284,4.20352508
18.91503508,3.577345247,-0.177426742,1.870772209,4.040874649
18.92497108,2.889119779,-0.064112381,2.255794988,3.666024348
18.93490608,2.115508005,0.347404424,2.367724729,3.194085838
18.94484208,1.682775455,0.672280111,2.114623321,2.784838518
18.95477808,1.739103438,0.605939357,1.687787104,2.498052957
18.96471308,1.993834464,0.315308765,1.329663856,2.417188751
18.97464908,2.159038187,-0.01967208,1.20340259,2.471843578
18.98458508,2.318856039,-0.412532466,1.209905863,2.647857353
18.99452008,2.523120332,-0.821087364,1.213940442,2.917871153
19.00445608,2.546674671,-1.16062319,1.062747817,2.993665143
19.01439208,2.28469719,-1.304108892,0.881651362,2.774500023
19.02432808,1.97427085,-1.234973169,0.742968271,2.444362078
19.03426308,1.698721397,-1.036876519,0.650844219,2.093887652
19.04419908,1.4872738,-0.822016194,0.643130572,1.816950993
19.05413508,1.145349094,-0.641896809,0.673491654,1.475617521
19.06407008,0.549627162,-0.376918538,0.721123073,0.981924685
19.07400608,-0.159692137,-0.097334798,0.835741364,0.856410689
19.08394208,-0.90612196,0.214275311,1.076519179,1.423328654
19.09387708,-1.568609154,0.494742564,1.354406934,2.130662579
19.10381308,-2.051923628,0.787184331,1.660218651,2.754337618
19.11374908,-2.499125113,1.030454522,1.83517553,3.267312669
19.12368408,-2.85956035,1.226678309,1.867776096,3.62910631
19.13362008,-3.089140162,1.382547536,1.767034417,3.817935995
19.14355608,-3.325077653,1.454710071,1.388150046,3.885779631
19.15349108,-3.604045973,1.501557963,0.894122304,4.005406145
19.16342708,-3.697665158,1.520296827,0.494714205,4.02849503
19.17336308,-3.70502037,1.512006353,0.122006832,4.003526548
19.18329908,-3.831425478,1.467907529,-0.287408776,4.113049661
19.19323408,-3.987188872,1.392445703,-0.721013145,4.284441631
19.20317008,-3.966278059,1.196242235,-1.060593118,4.276355328
19.21310608,-3.807546034,0.860913042,-1.20661505,4.085890105
