Time (s),Linear Acceleration x (m/s^2),Linear Acceleration y (m/s^2),Linear Acceleration z (m/s^2),Absolute acceleration (m/s^2)
0.001347875,2.476233264,-0.764626942,0.322738164,2.611617403
0.011281875,2.274106128,-0.256132604,1.077860531,2.529613788
0.021216875,2.165725647,0.013462045,1.095496829,2.427068625
0.031150875,2.545405825,0.144376525,1.61416715,3.017527296
0.041085875,2.61297391,0.412839153,2.261456847,3.480266641
0.051019875,2.670440345,0.554951636,2.335438596,3.590751508
0.060954875,2.443549667,0.555258615,2.05233995,3.23903479
0.070888875,1.813877339,0.529237336,1.918604772,2.692821463
0.080823875,1.782255304,0.519781803,1.612504787,2.459019882
0.090757875,1.700612679,0.539347757,1.148550444,2.121826479
0.100692875,1.695848075,0.467850927,0.675447548,1.884413589
0.110626875,1.94389281,0.437888625,0.817890984,2.153929286
0.120561875,1.491864156,0.674779796,1.311894168,2.098106942
0.130495875,1.496103388,0.815564377,0.320252001,1.733791205
0.140430875,1.587204762,0.116468934,-1.287493152,2.04705217
0.150364875,1.421939351,-0.012356921,-2.205790184,2.624418897
0.160299875,1.160486658,0.119754485,-1.910845663,2.238839335
0.170233875,0.756021595,0.619673882,-1.330335116,1.650865195
0.180168875,0.016011138,1.408225876,-0.501591262,1.494975006
0.190102875,-0.661544623,2.340403029,0.136365255,2.435923461
0.200037875,-0.470819266,3.442524827,-0.044678282,3.474858862
0.209971875,-0.668943982,4.082506673,-0.985364888,4.252680419
0.219906875,-1.116720249,4.086358234,-1.091605873,4.374584679
0.229840875,-0.920055875,4.674561231,0.151834356,4.766663318
0.239775875,-0.24303104,4.893791472,1.44816119,5.109347306
0.249709875,0.2450112,4.635193098,1.752763411,4.961574862
0.259644875,0.485315976,4.141098112,1.641203798,4.480823036
0.269578875,-0.140446904,3.47620245,0.813459379,3.572873489
0.279513875,-0.741626335,2.303383137,-0.00666758,2.419840481
0.289447875,-1.155040561,1.168532134,-0.284327878,1.66746166
0.299382875,-1.253928965,0.245409395,-0.33309044,1.320421471
0.309316875,-1.456978791,-0.54995519,-0.141118457,1.563698285
0.319251875,-1.607808303,-0.745335224,0.306774169,1.798522317
0.329185875,-1.345541385,-1.02389073,0.129920454,1.695792786
0.339120875,-0.969253178,-1.456013415,-0.424563697,1.79991142
0.349054875,-0.993312131,-1.799507514,-1.224465137,2.392532373
0.358989875,-1.034792864,-2.240326763,-1.525765436,2.901348039
0.368923875,-1.114697405,-2.639516761,-1.599927426,3.281671343
0.378858875,-0.896823717,-2.660446869,-1.653443483,3.258242728
0.388792875,-0.749177429,-2.525103123,-1.803424564,3.192139213
0.398727875,-0.822181378,-1.703310292,-1.834131217,2.634631946
0.408661875,-0.144062822,-2.915082586,-2.152222087,3.626364639
0.418596875,-2.963774982,-3.579609289,-2.690626688,5.370012736
0.428530875,-2.219663288,-2.531868936,-3.326358193,4.733067108
0.438465875,-2.332166348,-2.934897045,-2.804187802,4.681462354
0.448399875,-2.239249999,-3.011572754,-2.633503484,4.584664831
0.458334875,-2.095621917,-2.912989867,-1.840316986,4.032853555
0.468268875,-2.893701949,-3.689287267,-2.28489658,5.215851215
0.478203875,-2.811421977,-3.153208104,-0.811759009,4.301833048
0.488137875,-1.264830514,-2.811623706,-1.312677695,3.350842703
0.498072875,-1.40026957,-3.002178032,-1.79479232,3.767639483
0.508006875,-1.332025546,-2.948645604,-0.404347826,3.260720797
0.517941875,-0.715709136,-2.895758123,0.54344607,3.031994113
0.527875875,-0.722370869,-2.975674358,0.677164875,3.136081923
0.537810875,-0.70761162,-3.011552289,0.278141524,3.106046377
0.547744875,-0.039835911,-3.065401052,0.472575477,3.101870095
0.557679875,-0.041860509,-3.101045678,1.318774294,3.370074515
0.567613875,-0.020510863,-2.611465913,2.197419895,3.413038105
0.577548875,-0.128331766,-1.659650302,2.771049292,3.232587562
0.587482875,0.657076766,-0.682934908,3.686191167,3.806068218
0.597417875,1.669244413,0.251591656,5.218479171,5.484724253
0.607351875,2.649255298,1.012720794,6.159798446,6.78139174
0.617286875,3.722464661,1.515489539,6.442314856,7.593212258
0.627220625,4.443847058,1.84528595,6.268674186,7.902476382
0.637155625,4.915662398,2.215660869,5.76418636,7.892954725
0.647089625,4.458479131,2.097128452,6.122102616,7.858506496
0.657024625,3.252067272,1.430248244,6.724772794,7.605532244
0.666958625,2.270687554,0.729229068,6.59628023,7.014179202
0.676893625,0.922745594,0.497071218,6.100140474,6.18952769
0.686827625,0.818951084,-0.106170818,4.512569384,4.587508645
0.696762625,0.919386953,0.600471625,2.216817448,2.473887253
0.706696625,1.197491055,2.252467337,-0.134866614,2.554561202
0.716631625,1.994953036,3.931380706,-2.427446435,5.032701866
0.726565625,2.547865748,5.04405439,-3.879811773,6.854709618
0.736500625,2.021680074,5.582885837,-5.222895573,7.907872202
0.746434625,0.822248914,6.037296939,-6.337118769,8.791138828
0.756369625,-1.077900876,4.921409041,-6.615701172,8.315626209
0.766303625,-4.198563086,2.749574808,-5.015769653,7.095494262
0.776238625,-6.935481303,1.365963956,-2.819129192,7.610141118
0.786172625,-7.892771662,1.518695567,-2.53415432,8.427586776
0.796107625,-6.738594443,2.707735641,-2.040295855,7.543427241
0.806041625,-6.956371651,2.260522462,-1.198058234,7.411910137
0.815976625,-6.742692756,0.13000173,-0.690123475,6.779164879
0.825910625,-5.204540579,0.014335034,-0.330239046,5.215026937
0.835845625,-3.357289964,-0.496832067,-1.315691934,3.639956493
0.845779625,-0.375459657,-0.241764241,-2.090507942,2.137672416
0.855714625,2.41275092,0.576493363,-1.819124046,3.076186583
0.865648625,3.660987328,1.226386825,-1.556805965,4.162991433
0.875583625,4.109084022,0.243807258,-1.019149515,4.240598922
0.885517625,4.925886254,-0.951812688,-0.548016254,5.046843033
0.895452625,5.518710891,-1.345187629,-0.365092252,5.692011245
0.905386625,4.633831866,-1.392301569,0.282501792,4.846721436
0.915321625,3.449436528,-1.861371056,0.264422786,3.928515493
0.925255625,2.29655622,-2.578496388,0.175892433,3.457419882
0.935190625,0.732091134,-3.485888363,0.707069875,3.631435379
0.945124625,-0.941715423,-4.629516036,1.298806345,4.899606575
0.955059625,-1.094900633,-4.315617619,2.125778639,4.933791408
0.964994625,-0.770680418,-3.117623704,1.577170501,3.577847489
0.974928625,2.933156037,-3.110381927,0.078906348,4.275991848
0.984863625,1.842883768,-3.601492494,0.262659851,4.054128632
0.994797625,-2.328402642,-3.058282651,0.556448962,3.883836645
1.004732625,-1.776436594,-3.848111093,0.46684696,4.2639925
1.014666625,1.599971572,-5.517209911,1.004120125,5.831618254
1.024601625,6.519644283,-6.97002373,3.980186831,10.34064213
1.034535625,18.24605986,-4.618474739,8.545558326,20.67064528
1.044470625,14.74831743,4.226115459,-9.124113418,17.84999621
1.054404625,-23.64766271,-2.018605608,-7.043046098,24.75663989
1.064339625,-26.36426273,-7.611697176,5.59265478,28.00517936
1.074273625,-5.69960971,-5.061774961,5.166948245,9.208934291
1.084208625,1.407882645,-3.330424347,0.085124935,3.616781183
1.094142625,1.29313513,-0.765619215,-3.534913173,3.841091301
1.104077625,-0.577019613,2.053849116,-1.688917955,2.720972562
1.114011625,-1.036105856,2.811106228,-0.26830066,3.007959244
1.123946625,-0.674807278,3.692091007,-0.010861934,3.753267756
1.133880625,2.204114664,4.106997736,2.467481736,5.273899693
1.143815625,4.54655194,3.852313487,4.141823752,7.257145288
1.153749625,5.757066205,2.622120709,4.690794271,7.875460571
1.163684625,5.467229081,1.750337108,4.802072632,7.484261846
1.173618625,3.177104798,1.968361069,3.317201453,4.997225798
1.183553625,3.669859309,1.18438569,2.644219676,4.675738926
1.193487625,3.704183342,1.481931784,2.258578409,4.584568951
1.203422625,3.566094035,1.895598902,1.224495908,4.220155458
1.213356625,2.275860585,2.173469115,-0.210911261,3.154043905
1.223291625,1.637672957,3.866444453,0.222680537,4.204872417
1.233225625,0.631259262,4.742082539,-0.100095123,4.784961243
1.243160625,-1.581586757,4.629682097,-3.667504635,6.114406205
1.253094625,-0.404266258,7.587896084,-4.590031543,8.877386313
1.263029625,0.935858267,10.02343974,-1.918487243,10.24820805
1.272963625,2.005640869,10.92334962,0.900968809,11.14243721
1.282898625,1.302317452,10.09363206,0.091829425,10.17771446
1.292832625,-0.997965053,8.68348011,-2.66871951,9.138972858
1.302767625,-3.869401975,5.950489175,-6.220985464,9.438286561
1.312701625,-6.47947742,3.962803059,-6.739624137,10.15430791
1.322636625,-7.155903207,2.582568389,-3.996319299,8.593438085
1.332570625,-5.754946005,1.973172743,-1.696772812,6.315999697
1.342505625,-4.776360963,1.033231072,-0.861397484,4.962176551
1.352439625,-4.849766616,0.794050716,-1.14201852,5.045290782
1.362374625,-3.490204192,1.450405351,-0.885671908,3.881960293
1.372309625,-0.774389234,2.665073771,-0.515479715,2.822767477
1.382243625,0.520415934,2.527266592,-0.81975683,2.707380733
1.392177625,0.534610781,1.398102592,-0.561760719,1.598772857
1.402112625,0.256941566,0.49508141,0.07284929,0.562522524
1.412047625,0.981361299,0.433136008,0.331693248,1.122807736
1.421981625,1.219163175,0.399541415,-0.043582807,1.283702321
1.431916625,1.486194696,-0.160548754,-0.571477622,1.600355351
1.441850625,1.200301226,-0.567934794,-1.26148269,1.831559866
1.451785625,1.189585473,-1.299497486,-2.335934002,2.925815266
1.461719625,5.845206549,-3.630667176,-3.783711906,7.852684862
1.471654625,4.216181332,-4.822403401,-2.419364121,6.847268239
1.481588625,1.091802193,-5.482986158,-2.859753892,6.279598837
1.491523625,-0.198752707,-5.419718699,-3.867842522,6.661310622
1.501457625,-1.35727894,-5.344167411,-4.203721792,6.93351342
1.511392625,-2.344226377,-5.60309323,-4.781058909,7.729720262
1.521326625,-2.356877413,-5.867987301,-5.277461205,8.236488504
1.531261625,-2.465901234,-5.695365801,-5.623558484,8.37509824
1.541195625,-2.928233851,-6.044028838,-5.566410137,8.722944451
1.551130625,-3.554868258,-6.584489905,-4.72812582,8.851427535
1.561064625,-3.792795264,-6.926956063,-4.198441172,8.943988175
1.570999625,-4.043882013,-7.206757026,-3.078323983,8.818526357
1.580933625,-4.037998837,-7.257117925,-1.975440878,8.536601305
1.590868625,-3.694246291,-6.968130401,-1.124025468,7.966538157
1.600802625,-3.389780018,-6.346413503,-0.643857965,7.223719679
1.610737625,-3.031423759,-5.741661131,0.233600651,6.496981746
1.620671625,-2.309491285,-5.017264202,0.645042611,5.560824582
1.630606,-1.619883388,-4.3730823,-0.092022603,4.664369106
1.640541,-0.924728677,-3.283163057,0.428688031,3.437739986
1.650475,0.157291563,-2.100357869,2.017885231,2.916865547
1.66041,0.992337693,-0.591573333,3.834349086,4.004613092
1.670344,1.384121899,1.398844603,7.042575982,7.312348194
1.680279,2.262436109,3.392016578,8.060299069,9.03287411
1.690213,3.975036311,5.792124356,8.749470617,11.22064411
1.700148,5.958329122,7.629335302,8.871594978,13.13063748
1.710082,6.584119191,8.508843659,8.049797469,13.43690013
1.720017,5.030363134,7.829189624,6.702741655,11.46854433
1.729951,3.250098807,5.856251355,6.639112254,9.430622127
1.739886,1.361706159,3.428831232,7.474596341,8.335509447
1.74982,-0.127549847,1.031669281,8.277636566,8.342654109
1.759755,-0.184643961,-1.387741325,7.8099938,7.934476828
1.769689,-0.503796393,-3.018052053,5.398283976,6.205152608
1.779624,-0.860077621,-3.367935405,2.05800824,4.039569324
1.789558,-0.867910625,-2.266830438,-0.625394213,2.506572761
1.799493,-0.882376855,-0.170915283,-2.641437571,2.790160101
1.809427,0.944413255,3.428311415,-4.803756046,5.976730519
1.819362,1.526090541,8.53015676,-6.87134378,11.05928985
1.829296,1.139249278,14.03639203,-9.069976387,16.75060184
1.839231,-4.08228214,16.28843662,-10.75519422,19.94122357
1.849165,-14.78928771,11.23253284,-9.081967857,20.67304924
1.8591,-14.02437016,6.125547211,-3.94621977,15.8043645
1.869035,-4.755410097,0.06788442,-0.5550908,4.78817912
1.878969,-2.397552837,-2.425882305,2.609103053,4.294250029
1.888904,-2.423542688,-2.99245996,2.996101606,4.879036852
1.898838,-4.709526411,-3.554454567,0.051126592,5.900542367
1.908773,-4.981130748,-3.89276394,-2.134776919,6.672521796
1.918707,-3.678971609,-3.848853105,-2.603811323,5.926916208
1.928642,-2.677419582,-3.147968414,-2.59253526,4.878475154
1.938576,-0.299830162,-1.639479747,-3.302968453,3.699647628
1.948511,3.115643837,0.68328808,-3.83969081,4.99172762
1.958445,3.454254341,3.18992511,-3.732236236,6.00308942
1.96838,3.004035108,4.880902455,-1.27685999,5.871780577
1.978314,4.828086895,4.158848505,1.117282459,6.469525797
1.988249,7.631773006,1.51420666,1.247942439,7.879983588
1.998183,8.157643515,-1.232521139,1.867543231,8.458958198
2.008118,6.167674645,-3.271040609,1.410780232,7.122514869
2.018052,3.486561962,-4.508824242,0.291659701,5.707072432
2.027987,1.534155752,-5.686395587,-0.824686179,5.947170415
2.037921,0.404249301,-6.135796795,-1.483003578,6.325402708
2.047856,-1.298351578,-5.883329811,-1.666027129,6.250994551
2.057791,-2.810450755,-5.219525238,-1.575099125,6.133760218
2.067725,-3.740541036,-4.379484417,-1.35442813,5.916587408
2.07766,-4.15597226,-3.618544144,-1.247937908,5.650072227
2.087594,-3.748486525,-2.960257004,-0.977096048,4.875345059
2.097529,-2.662719682,-2.387763137,-0.868028008,3.680348017
2.107463,-1.31458491,-2.024180928,-0.866600044,2.564456581
2.117398,0.355786993,-1.925084072,-0.465516719,2.01227207
2.127332,1.406182128,-2.745389956,-0.068017151,3.085310441
2.137267,1.547284066,-3.421398836,0.690418174,3.817949088
2.147201,1.863037074,-3.499779008,1.744120349,4.331433485
2.157136,1.846070062,-3.238661653,2.702115297,4.604164534
2.16707,1.36965618,-2.411549025,3.013674828,4.095578435
2.177005,1.204501281,-1.384078045,2.509807391,3.108959394
2.186939,1.618982625,-0.422710422,1.221214305,2.071509889
2.196874,2.019523036,0.188504292,-0.027465614,2.028487496
2.206808,1.618237982,0.282514656,0.812981662,1.832879668
2.216743,0.602880824,0.668793417,2.704958506,2.850885905
2.226677,0.254998463,1.728648031,3.559598948,3.965349026
2.236612,0.561668589,2.710214276,2.880596877,3.994818068
2.246546,0.998886501,4.066025711,2.563459103,4.909344345
2.256481,0.782085266,5.215821612,2.047186214,5.657510393
2.266416,0.682089693,5.957071386,1.739616823,6.243253362
2.27635,0.776533701,5.985303497,1.685710026,6.266456801
2.286285,0.107039203,5.574184595,2.384620697,6.063778291
2.296219,-0.757501818,4.838900735,3.355859735,5.937218532
2.306154,-1.845795243,3.902176788,3.333394732,5.453940246
2.316088,-1.779805613,3.223782243,1.692346762,4.052717303
2.326023,-0.37638761,2.6375749,1.357042859,2.989989015
2.335957,-0.087205374,1.878074797,1.593773232,2.46472774
2.345892,0.451909955,1.549536706,0.204519231,1.626995614
2.355826,1.467348535,1.244542429,-1.322805657,2.334911645
2.365761,2.726718042,1.184963395,-1.048747829,3.152618203
2.375695,3.311304244,1.839801847,-0.544686264,3.827047133
2.38563,3.562405904,3.703080849,-0.936812825,5.223137167
2.395564,3.190180341,6.081926397,-2.439584816,7.288254481
2.405499,2.72781498,7.611827568,-3.644422166,8.869199875
2.415433,2.616229347,9.199947127,-2.080215819,9.788308383
2.425368,2.306092152,9.364369662,-0.647300221,9.665840768
2.435303,1.681285877,8.791496894,-0.96697598,9.002898555
2.445237,0.998084336,8.330490718,-2.230780307,8.681568333
2.455172,-0.574537177,7.059828776,-2.824862387,7.625688351
2.465106,-2.634669711,5.430650654,-2.764736638,6.639067682
2.475041,-4.296068038,3.434445729,-1.563234101,5.717982066
2.484975,-4.670454147,1.51349213,0.174482669,4.912661658
2.49491,-5.776258521,-0.10335363,-0.100844589,5.77806318
2.504844,-6.502166955,-1.132344301,-0.235615017,6.604232974
2.514779,-6.182026636,-1.846798625,-0.306781186,6.459274974
2.524713,-4.866815343,-1.91247689,-0.768480842,5.285264633
2.534648,-2.26126535,-1.850874134,-1.961585315,3.519498969
2.544582,0.247700316,-1.92203124,-3.139066321,3.689078056
2.554517,1.366410098,-2.003435592,-3.860639922,4.559097645
2.564451,1.507299344,-2.199500919,-4.383133664,5.13045966
2.574386,1.164488785,-3.188134693,-5.211094723,6.218982647
2.58432,0.696650283,-4.092121249,-5.539055693,6.921843389
2.594255,0.213074731,-4.916073457,-5.696150497,7.527237844
2.60419,0.011991616,-5.844916527,-5.958936063,8.34698221
2.614124,-0.299435055,-7.024132694,-6.717876588,9.724092107
2.624059,-0.801464547,-7.539553644,-7.173568815,10.43778253
2.63399325,-1.300003562,-8.458690921,-6.551785843,10.77800348
2.64392825,-1.509062718,-9.161819188,-4.768279819,10.4380407
2.65386225,-2.010701488,-8.938995833,-3.068179649,9.662416537
2.66379725,-2.41176888,-8.012139062,-2.17904502,8.646342503
2.67373125,-2.144730635,-7.035300876,-2.150426992,7.662875711
2.68366625,-1.719826045,-6.29155668,-1.756529894,6.754767527
2.69360025,-1.920701876,-5.876765726,-1.044819084,6.270336356
2.70353525,-1.725389086,-5.373183049,-0.420326512,5.659040374
2.71346925,-1.160368252,-4.575106525,-0.049014285,4.720217854
2.72340425,-0.478871174,-3.607705745,0.433161736,3.665035803
2.73333825,0.051605771,-2.390455779,0.988375912,2.587243501
2.74327325,0.909877626,-0.927998732,1.351236573,1.874806449
2.75320725,1.663714117,0.587411284,1.97799728,2.650560303
2.76314225,1.942837242,2.047494362,3.568547527,4.549877049
2.77307625,2.163005815,3.490699452,5.957629795,7.235808842
2.78301125,2.214721514,4.794425644,8.195745142,9.749961388
2.79294625,2.214017655,6.304183742,9.76340997,11.83084025
2.80288025,1.796021258,7.919157808,9.941625502,12.83645864
2.81281525,1.277497337,8.309641886,7.807319283,11.47328994
2.82274925,1.787828578,6.975932341,6.688120692,9.828068043
2.83268425,2.451930627,4.220112707,6.049405938,7.772813343
2.84261825,2.414569697,1.178658927,5.61731892,6.226849568
2.85255325,1.502203788,-1.714206578,4.877799922,5.384055395
2.86248725,-0.012569467,-3.970214989,3.437455291,5.251558238
2.87242225,-0.964060046,-3.726192554,2.888716906,4.812339149
2.88235625,-1.955286695,-2.770111983,1.561571445,3.732984307
2.89229125,-2.317297464,0.153566009,0.050280792,2.322924496
2.90222525,-1.942216998,5.125161703,-1.969662659,5.824007241
2.91216025,-0.986483022,10.92708014,-5.213841745,12.14736082
2.92209425,-1.990976637,14.27406731,-10.05260332,17.57179044
2.93202925,-8.554651916,13.24651623,-14.42739417,21.37292596
2.94196425,-14.19575556,6.472025728,-11.42347601,19.33655597
2.95189825,-8.562851467,-1.059790295,-2.368412361,8.947343618
2.96183325,0.281075656,-3.42313429,0.115346854,3.436590867
2.97176725,-0.319154625,-2.152452468,1.488566619,2.636425967
2.98170225,-3.721313637,-0.617036203,3.984973361,5.487159698
2.99163625,-3.589653636,-1.073209655,4.278177897,5.686844319
3.00157125,-2.243365415,-2.094935746,1.77077839,3.543599903
3.01150525,-0.187812421,-2.376728271,-1.694464039,2.924947719
3.02144025,2.482119948,-2.080733444,-5.464972056,6.352660125
3.03137425,4.850956232,-0.450376523,-7.277686676,8.757815865
3.04130925,6.374473706,2.362149993,-7.556609387,10.16444849
3.05124325,6.376237226,3.930484913,-5.746001519,9.44042617
3.06117825,5.297330629,3.710244858,-1.537764215,6.647732506
3.07111225,4.477534037,2.59482883,1.756157134,5.464936925
3.08104725,2.680911832,1.064963327,2.90780748,4.095946713
3.09098225,0.183888062,-0.388013629,2.083565251,2.127348949
3.10091625,-0.920438575,-1.655330379,0.465028476,1.950276216
3.11085125,-0.457534904,-3.055237421,-0.657215637,3.158440483
3.12078525,-0.446147817,-5.345801708,-1.52459073,5.576828908
3.13072025,-0.231747083,-6.851918744,-2.131120656,7.179427027
3.14065425,-0.424349214,-7.189843955,-2.704330223,7.693330248
3.15058925,-0.812373624,-7.032663197,-3.069872125,7.716373333
3.16052325,-1.191818963,-6.306710908,-3.170643917,7.158772085
3.17045825,-1.419969424,-5.00351272,-2.604939836,5.816972086
3.18039225,-1.491560686,-3.458445625,-1.750062435,4.153109432
3.19032725,-1.141559002,-2.498425201,-0.987199598,2.91887795
3.20026125,-0.60568493,-1.922821199,-0.444403739,2.064361955
3.21019625,0.213828145,-1.46361655,-0.107736118,1.483072133
3.22013025,0.532977581,-1.221264079,0.041377748,1.333140342
3.23006525,0.490052366,-1.211555947,-0.150053587,1.315498086
3.24000025,0.832886388,-1.580379015,-0.036129434,1.786785634
3.24993425,1.385152325,-2.041495703,0.697845892,2.563852679
3.25986925,1.226035334,-2.047381511,1.718363948,2.940698616
3.26980325,1.173503583,-1.491488473,2.595320581,3.215173004
3.27973825,1.400871248,-0.790761657,3.002196743,3.406013732
3.28967225,1.554841446,-0.185991159,2.874680665,3.273517001
3.29960725,1.623393764,0.143486579,2.092648315,2.652389995
3.30954125,1.510317238,0.393198355,1.535516253,2.189400207
3.31947625,0.712813449,0.702050625,1.544726787,1.840423576
3.32941025,0.356783651,1.788508902,3.391221356,3.850511778
3.33934525,0.937613309,3.166062039,5.604198353,6.504621952
3.34927925,2.168440217,4.180112489,4.347153407,6.408838908
3.35921425,3.999845755,4.588567985,3.034870985,6.80177654
3.36914825,5.487955706,4.274286575,2.858203211,7.520406183
3.37908325,6.212444437,4.132961712,3.100543402,8.080173747
3.38901825,5.296573414,3.97942143,3.451287464,7.469997993
3.39895225,4.130697085,4.567862994,3.635203446,7.151414884
3.40888725,2.972424768,4.822200503,2.347128642,6.131715874
3.41882125,1.241435365,4.45422762,0.552270907,4.656856087
3.42875625,-0.122300655,3.868987407,0.4406556,3.895920734
3.43869025,-0.934686193,3.203952581,1.20319092,3.547762507
3.44862525,-0.905565743,2.858365763,0.25404047,3.009126238
3.45855925,0.02521641,2.724801325,-0.935247526,2.880948812
3.46849425,-0.183853709,3.178786165,-1.203445786,3.403933816
3.47842825,-1.147488882,3.972579018,-1.690918872,4.467361797
3.48836325,-1.298064479,4.593645122,-2.736815014,5.502427039
3.49829725,-0.509026289,5.598947554,-4.531651188,7.221023747
3.50823225,-0.989856427,7.409878773,-4.965550257,8.974564532
3.51816625,-2.925722764,7.610462828,-4.27428716,9.205896419
3.52810125,-4.101377977,8.723413085,-1.809335076,9.807799476
3.53803625,-5.004514933,9.134491056,0.22026783,10.41789876
3.54797025,-5.076497666,8.679571831,-0.727949113,10.08145355
3.55790525,-4.410907938,7.480748196,-2.788451483,9.121028675
3.56783925,-3.29377166,5.740637283,-3.706305296,7.585548571
3.57777425,-3.263358538,3.474762865,-3.614869754,5.982538696
3.58770825,-3.838202694,1.534664898,-2.525699831,4.844187848
3.59764325,-4.506033074,-0.243052967,-1.284127787,4.69173667
3.60757725,-4.078538752,-1.392535458,-0.531156977,4.342322085
3.61751225,-2.448768307,-2.036876403,-0.042340858,3.18545514
3.62744625,-1.072954571,-2.297000901,-0.406897212,2.567685727
3.637381875,0.100683133,-2.353941672,-1.559987435,2.825728098
3.647315875,1.626455805,-2.242410711,-2.756715428,3.908099824
3.657250875,3.51930023,-2.844649365,-4.25801202,6.213547335
3.667185875,5.301409062,-4.543516942,-4.673609304,8.401851473
3.677119875,5.690517874,-6.594642425,-4.304426048,9.715934644
3.687054875,3.647412725,-7.747866549,-4.759984374,9.797474516
3.696988875,1.962464737,-7.077321891,-5.019575021,8.89583534
3.706923875,0.929961423,-6.544223639,-5.478213075,8.585016586
3.716857875,0.489013974,-6.891812543,-6.51246858,9.49465438
3.726792875,-0.067101916,-6.795365059,-5.866140751,8.977365775
3.736726875,-0.941439361,-7.016190421,-5.491645299,8.959431019
3.746661875,-0.925107138,-7.021109099,-5.508347871,8.97182771
3.756595875,-0.907135136,-6.878504865,-4.84634658,8.463084455
3.766530875,-1.301427652,-6.563213056,-4.16362685,7.88068957
3.776465875,-1.534680101,-6.462373145,-3.750236304,7.627698343
3.786399875,-1.653287508,-6.347314559,-3.329097029,7.355586225
3.796334875,-1.783356481,-6.204493393,-3.019449538,7.126933009
3.806268875,-1.835493034,-5.817987176,-2.823326324,6.722289861
3.816203875,-1.42558816,-5.036008621,-2.239798175,5.693011531
3.826137875,-0.88989367,-4.26416446,-1.83418735,4.726441846
3.836072875,-0.349619423,-3.227949554,-1.239600947,3.475414014
3.846006875,0.423339437,-2.108910007,0.218000864,2.161999554
3.855941875,0.747378241,-0.73915881,2.532992186,2.742440409
3.865875875,0.165490236,1.304277,5.407257113,5.564796043
3.875810875,-1.040114122,3.938006186,8.43970969,9.371148796
3.885744875,-1.889354661,7.166523505,10.95065846,13.22292104
3.895679875,-1.580826765,10.53822861,12.16831071,16.17470436
3.905614875,-0.99824148,12.70837475,11.35198912,17.06947368
3.915548875,-0.185759609,12.07639014,8.661717943,14.86267349
3.925483875,0.894563915,8.920975299,5.868341643,10.71547845
3.935417875,2.011150555,5.059216805,3.666930438,6.564052107
3.945352875,1.836485745,1.900785967,3.135630789,4.100956916
3.955286875,0.826128103,-0.148481271,3.296869515,3.402040995
3.965221875,-0.207710203,-1.034340874,3.332902982,3.495889995
3.975155875,-1.211763377,-0.274095835,3.798075884,3.996108035
3.985090875,-1.645586286,2.925460809,3.081465107,4.556501111
3.995024875,-2.620791053,7.329678363,1.847941171,8.000476062
4.004959875,-6.069585264,10.85232349,-1.10151895,12.48303386
4.014893875,-9.458903351,11.44969726,-4.037393065,15.39048286
4.024828875,-7.411380338,7.259851499,-7.018578424,12.52575129
4.034763875,-0.358731797,0.536948644,-8.342291569,8.367247514
4.044697875,3.220438221,-5.60041462,-8.319361128,10.53316837
4.054632875,1.98906489,-7.894029399,-9.001690264,12.13682442
4.064566875,-1.143820193,-6.450312093,-9.482392786,11.52521686
4.074501875,-3.540284717,-2.21400026,-5.179964147,6.653378209
4.084435875,-4.61253309,0.177815582,0.613540152,4.656555745
4.094370875,-3.350584669,0.729354199,3.575975829,4.954389802
4.104304875,-2.441199232,-0.394684718,2.601263399,3.589122593
4.114239875,-1.302758916,-2.009335433,-0.029969027,2.394892026
4.124173875,-0.251155892,-2.302377416,-1.377215753,2.694576827
4.134108875,1.156413487,-0.518324093,-2.981242077,3.239406788
4.144043875,4.094644031,1.615285723,-4.364376381,6.198632018
4.153977875,4.347172118,2.732333123,-3.301123949,6.104176361
4.163912875,2.317084187,3.29118836,-1.841881994,4.426435273
4.173846875,1.474162296,3.261531283,-1.174977228,3.767135818
4.183781875,1.866773737,2.162217318,-1.137452137,3.074707348
4.193715875,3.101871305,0.391340695,-0.680151633,3.199587376
4.203650875,3.502810205,-1.819457045,0.577664853,3.989210442
4.213584875,2.8570019,-3.710347769,1.231436334,4.842063183
4.223519875,1.914890036,-4.741080326,1.141843542,5.239127139
4.233453875,1.168374186,-5.497910006,0.860158021,5.686122096
4.243388875,0.883617488,-5.304364244,0.099205615,5.378373514
4.253323875,0.321657453,-4.252934298,-0.66469291,4.316564644
4.263257875,-0.177290941,-3.248973802,-1.314680951,3.509365875
4.273192875,-0.317826576,-2.839214963,-1.591290504,3.270223357
4.283126875,-0.474237768,-2.750893355,-1.276301581,3.069407343
4.293061875,-0.666496703,-3.005651863,-0.279485287,3.09132221
4.302995875,-0.72646984,-3.185449651,0.912122299,3.39216966
4.312930875,-0.399248908,-3.227457218,1.646605164,3.645159578
4.322864875,0.352193513,-3.182452953,1.631394802,3.593535316
4.332799875,1.165810986,-2.903305709,1.168764853,3.339806967
4.342733875,2.065435666,-2.509969359,0.769794565,3.340442238
4.352668875,2.631385623,-2.153253536,0.243871541,3.408836226
4.362603875,2.394314065,-1.880338254,0.046388867,3.044760043
4.372537875,1.61535355,-1.762272445,0.697188081,2.490189246
4.382472875,0.891883112,-1.535050814,1.567875913,2.368558922
4.392406875,0.135141579,-1.139547486,2.281355506,2.553706065
4.402341875,-0.413092776,-0.92470675,2.754411625,2.934708097
4.412275875,-0.41643139,-0.966144798,2.414610043,2.63385507
4.422210875,-0.005370521,-0.782681975,1.225282871,1.453938798
4.432144875,0.175086687,-0.027086057,0.134158443,0.222232964
4.442079875,0.058499492,1.2506095,0.276186215,1.282078445
4.452014875,0.246872076,2.487587972,1.584567229,2.959711648
4.461948875,0.940953092,3.524309247,2.750881076,4.568752027
4.471883875,1.750278636,4.158083689,3.95255172,5.997983025
4.481817875,2.549862573,4.737362666,4.913339299,7.285966459
4.491752875,3.1211601,5.060324852,5.112757419,7.841480498
4.501686875,2.941902595,5.136301233,4.56259056,7.473527537
4.511621875,2.887242823,5.328416766,2.746409125,6.653642569
4.521555875,2.680581172,5.897443235,0.880047032,6.537571025
4.531490875,0.48807513,6.314066121,0.672631017,6.368522654
4.541425875,-0.606740133,6.081243442,0.689152691,6.150169658
4.551359875,-0.224581321,5.175446588,-0.177458317,5.183355632
4.561294875,0.493439805,4.288219905,-0.966093342,4.423307489
4.571228875,0.509887584,3.524016302,-1.211341939,3.76112025
4.581163875,-0.009320608,3.51389828,-0.625547994,3.569156523
4.591097875,-0.571666194,4.036570947,0.148846137,4.07956645
4.601032875,-0.197514413,4.353136278,-0.755462601,4.422615871
4.610966875,0.236879331,5.31336194,-2.717535574,5.972681686
4.620901875,-0.661589062,7.065585945,-4.370976133,8.334604801
4.630835625,-2.185250377,8.617953873,-4.529392408,9.977967917
4.640770625,-3.955395806,9.415364984,-3.34718656,10.74699547
4.650705625,-4.705736246,9.124173644,-2.253314599,10.51056254
4.660639625,-4.044579293,7.371733877,-2.589487984,8.798098092
4.670574625,-3.462127909,4.595647793,-4.265064054,7.162197965
4.680508625,-3.024429612,2.53165025,-4.311496794,5.843409285
4.690443625,-3.2341745,0.953166318,-3.288554775,4.709883568
4.700377625,-3.755229242,-0.145255362,-2.207896351,4.35862961
4.710312625,-3.714144951,-1.046054016,-1.467910745,4.128421451
4.720246625,-2.983842626,-1.50194154,-0.933045172,3.468388459
4.730181625,-2.143424951,-1.531758832,-1.008279541,2.820847971
4.740115625,-1.040436231,-1.598403057,-1.743060248,2.583729652
4.750050625,0.419598973,-1.592662261,-2.521304187,3.011579515
4.759985625,2.062068986,-1.811411276,-3.43042226,4.393305838
4.769919625,3.57740255,-2.551757655,-4.030030251,5.962417292
4.779854625,4.379056401,-4.252491664,-4.373768764,7.509305794
4.789788625,3.926278426,-6.129405788,-3.681892294,8.157303994
4.799723625,2.017543315,-6.680302965,-3.830552489,7.960531459
4.809657625,0.923671793,-6.387380265,-5.180272295,8.275688327
4.819592625,0.798882855,-6.326495547,-5.92987891,8.707825424
4.829526625,0.170581992,-6.935539775,-6.181444838,9.291989587
4.839461625,-0.114684364,-7.295543488,-6.095580815,9.507587115
4.849396625,-0.435091463,-7.39228801,-6.043882658,9.558438376
4.859330625,-1.02987594,-7.421153959,-5.267870017,9.158855008
4.869265625,-1.110660925,-7.478887028,-4.412567378,8.754317205
4.879199625,-0.783743098,-7.308517874,-3.59640717,8.183082017
4.889134625,-0.66114789,-6.937875153,-3.017594801,7.594544526
4.899068625,-0.426619286,-6.637945735,-2.607420809,7.144436358
4.909003625,-0.20423301,-6.353690363,-2.52499261,6.840078949
4.918937625,-0.013351678,-5.629313899,-2.151659001,6.026523848
4.928872625,-0.19648618,-4.751643321,-1.871481476,5.110691146
4.938807625,-0.092711551,-3.517261598,-1.492702355,3.822026282
4.948741625,0.524992696,-2.219520031,-0.029430791,2.280954333
4.958676625,0.618194682,-0.912591904,3.307859357,3.486677813
4.968610625,0.395018447,0.613216217,5.922648243,5.96739775
4.978545625,0.208959315,2.791575943,7.599484096,8.098686237
4.988479625,-0.242293268,5.722365904,9.045947839,10.7066965
4.998414625,-0.900709192,9.082375408,10.47593004,13.89409696
5.008348625,-1.621789581,11.75837879,10.42673858,15.79894144
5.018283625,-1.772532847,12.35873464,7.906371117,14.77805464
5.028218625,-1.339034019,10.68607312,5.885983277,12.27314018
5.038152625,-0.562473494,7.572721975,4.438722559,8.795723534
5.048087625,-0.670439846,4.602044063,3.744849265,5.970945918
5.058021625,-1.455463339,2.624275993,3.831891502,4.867092612
5.067956625,-2.296980728,2.370836617,4.127424399,5.285131871
5.077890625,-3.100118895,3.623907795,4.133823007,6.311254829
5.087825625,-3.922355529,6.382921178,3.256803809,8.169046867
5.097759625,-5.15672965,9.443915184,1.082134845,10.81436131
5.107694625,-6.68908022,9.932043085,0.384371399,11.98069344
5.117629625,-4.467425371,5.410522783,-0.87663679,7.071077591
5.127563625,1.00672272,-1.684743628,-6.325065318,6.622560155
5.137498625,3.065291124,-6.739093795,-9.121925974,11.74823086
5.147432625,2.836114477,-9.310470613,-10.59271297,14.38519991
5.157367625,0.343106136,-9.116209736,-12.31430282,15.32530769
5.167301625,-2.360358699,-5.343841136,-8.278314258,10.13204906
5.177236625,-3.838873662,-1.903134794,-2.169070255,4.802472155
5.187170625,-4.011854181,0.768770864,3.663862404,5.487246152
5.197105625,-1.990686323,1.02384863,3.917027546,4.511563238
5.207040625,-1.181279357,-0.021937584,0.371461624,1.238501479
5.216974625,-1.063864781,0.409158915,-0.799026404,1.391999456
5.226909625,-0.030435342,1.757592334,-1.281469935,2.175367168
5.236843625,2.193671099,2.650465087,-2.590881375,4.306950704
5.246778625,3.243125125,2.612164655,-2.715713582,4.971555594
5.256712625,2.608938162,1.90338447,-2.076757337,3.839577035
5.266647625,1.927440646,1.074451019,-1.792558976,2.843016025
5.276581625,1.644088522,0.264365484,-1.639663934,2.336966836
5.286516625,1.820035334,-0.254678401,-1.303686431,2.253217259
5.296451625,2.20728137,-1.046934607,-0.54469065,2.502968442
5.306385625,2.566067838,-2.166127351,0.138838627,3.36096534
5.316320625,2.448482524,-3.545710641,0.269215457,4.317361183
5.326254625,2.122948587,-4.48360871,0.219866418,4.965682129
5.336189625,1.787280548,-5.040320942,0.283629428,5.355338702
5.346123625,1.571282209,-5.075867921,0.227572756,5.318378727
5.356058625,1.170221103,-4.557239773,-0.052741593,4.705383454
5.365992625,0.696247848,-3.661810616,-0.103044751,3.728838462
5.375927625,0.283376097,-3.002617743,-0.180714632,3.021369408
5.385862625,0.052268919,-2.505172303,-0.338383778,2.528462752
5.395796625,-0.142430718,-2.139244192,-0.360529962,2.174082353
5.405731625,-0.075517375,-2.030143334,-0.065580032,2.032605612
5.415665625,0.33202844,-2.125545335,0.274166586,2.168721553
5.425600625,0.920564509,-2.302867997,0.516187447,2.533197487
5.435534625,1.457501239,-2.499538511,0.580576328,2.951113604
5.445469625,1.668127888,-2.666898102,0.575555982,3.197852533
5.455404625,1.398981574,-2.621773385,0.672594034,3.046838995
5.465338625,0.821205113,-2.322592995,1.061280751,2.682374487
5.475273625,0.42518818,-1.961725064,1.618780019,2.578681633
5.485207625,0.401642027,-1.598986024,2.001721773,2.593253301
5.495142625,0.386244847,-1.482304836,2.020160383,2.535243712
5.505076625,0.266433059,-1.653940496,2.084656341,2.674378021
5.515011625,0.427924384,-1.526531421,1.902881609,2.476767223
5.524945625,0.596773992,-0.57667989,1.213020163,1.469733584
5.534880625,0.706912293,1.069909487,1.046106641,1.654923081
5.544815625,1.102353494,2.736967041,1.202608538,3.186289238
5.554749625,2.24370163,3.88959358,1.590221779,4.763605832
5.564684625,3.162326252,4.423406362,2.067408078,5.81730241
5.574618625,3.372713165,4.748980499,2.785937473,6.45673737
5.584553625,2.836622307,5.187574298,4.441729782,7.39501972
5.594487625,2.115850506,5.637691205,5.242046374,7.98369812
5.604422625,2.816186581,5.786203465,3.160682015,7.169446855
5.614356625,2.264887847,5.641316478,0.267962837,6.084897094
5.624291625,0.645186014,6.081587259,-0.512006761,6.137110028
5.6342265,-0.695225755,5.916518022,0.103061781,5.958115984
5.6441605,-0.569876216,5.66288101,0.36728112,5.703321458
5.6540955,0.63666706,5.479100683,-0.437647719,5.533301434
5.6640295,1.229506607,4.76226128,-1.003120251,5.019668239
5.6739645,0.593401026,4.392697955,-0.936261433,4.530397948
5.6838985,-0.320003202,4.461769359,-0.79273977,4.542931235
5.6938335,-0.501144388,4.63412715,-1.872058012,5.023035073
5.7037685,-0.755223158,5.283328886,-3.391544123,6.323487777
5.7137025,-1.876227954,6.254571286,-4.236826096,7.783995676
5.7236375,-3.093137319,7.458883703,-3.897701329,8.966299137
5.7335715,-4.189007566,8.361330687,-2.997407874,9.820595156
5.7435065,-4.517105069,7.914240884,-3.054679597,9.610958039
5.7534405,-3.813747007,6.49547891,-4.481415419,8.764644697
5.7633755,-3.248450769,4.664309308,-5.304188243,7.774485619
5.7733095,-3.15226261,3.071775101,-4.541911589,6.324675701
5.7832445,-3.858781677,1.567981163,-3.371504545,5.358712892
5.7931795,-4.360989089,0.15023719,-2.208688357,4.890715827
5.8031135,-4.113475281,-0.956862343,-1.305418376,4.420450381
5.8130485,-3.199973258,-1.774947454,-0.326234872,3.673785039
5.8229825,-2.157556795,-2.132076091,-0.263387829,3.044695868
5.8329175,-0.597202009,-2.27274782,-1.422480803,2.746904536
5.8428515,1.189077788,-2.618290783,-2.583961195,3.866032601
5.8527865,2.883854361,-3.162344379,-3.38160561,5.454566385
5.8627215,3.878455219,-4.122839597,-4.026920702,6.946676296
5.8726555,4.539849569,-5.847879311,-4.124791982,8.474776424
5.8825905,3.831560549,-7.105341164,-4.810682657,9.397307962
5.8925245,2.06322191,-7.285350037,-5.44535991,9.326583209
5.9024595,1.29689986,-7.137129552,-5.654712449,9.197626888
5.9123935,1.059852276,-7.686904063,-5.468081605,9.492718123
5.9223285,0.384424024,-7.924149576,-4.823508525,9.284727396
5.9322635,-0.362811107,-7.909481251,-4.35668203,9.0372675
5.9421975,-0.669881583,-7.555570337,-4.066309301,8.606407833
5.9521325,-0.625188975,-6.927099904,-3.900579329,7.974339687
5.9620665,-0.501684233,-6.328036289,-3.800719995,7.398729811
5.9720015,-0.401550372,-5.947773144,-3.581065246,6.95422723
5.9819355,-0.374067581,-5.837702817,-3.31096072,6.72169336
5.9918705,-0.4473253,-5.721518058,-2.789358678,6.380939636
6.0018045,-0.573883166,-5.550046704,-2.376907196,6.064820536
6.0117395,-0.403842773,-5.228524688,-2.056310794,5.632847724
6.0216745,-0.223886233,-4.67941559,-1.11990435,4.81676666
6.0316085,-0.16590802,-3.813619537,0.483759447,3.847758133
6.0415435,-0.211649034,-2.61819255,1.969258617,3.282941827
6.0514775,-0.174596544,-0.596537034,3.6121163,3.665204571
6.0614125,-0.178314496,1.858326411,5.270481384,5.591345735
6.0713465,-0.922202972,4.990555875,7.85894552,9.355166003
6.0812815,-1.340754562,8.74490628,10.46574886,13.70412011
6.0912165,-1.610902357,12.51357944,11.61611019,17.149889
6.1011505,-2.006377765,14.11814663,10.27290301,17.57498655
6.1110855,-1.552492766,12.21713496,8.357808909,14.88360139
6.1210195,0.012939596,8.138372262,6.086846829,10.16282317
6.1309545,0.835372989,4.220029677,3.886244879,5.797361276
6.1408885,0.132552724,1.101922408,2.644838312,2.868270021
6.1508235,-1.034616132,-0.600505539,1.909062701,2.252899873
6.1607585,-2.394128269,-1.118437868,1.877064398,3.241315194
6.1706925,-3.360877231,-0.552459553,2.412188126,4.173650545
6.1806275,-3.278550189,3.392762098,1.300296215,4.893924421
6.1905615,-5.065290892,8.690595587,0.478986949,10.07040476
6.2004965,-6.838895241,12.40560709,-0.788202331,14.18770025
6.2104305,-5.745054855,9.955845931,-5.433387151,12.71401665
6.2203655,-0.155177648,1.406808511,-10.11001596,10.20860485
6.2303005,3.340112599,-5.092285148,-10.16144573,11.84663241
6.2402345,1.933094757,-6.78886354,-10.91817016,13.00122929
6.2501695,-1.53856236,-5.351814399,-9.684369648,11.17121779
6.2601035,-4.401531928,-1.815351714,-2.512498865,5.383459455
6.2700385,-4.378482204,-0.085650015,3.985036511,5.921060575
6.2799725,-2.486798598,-0.367471191,3.495851433,4.305830882
6.2899075,-2.068764486,-0.971866298,0.121522683,2.28890331
6.2998415,-1.392194273,-1.271409801,-1.335328346,2.310365678
6.3097765,0.360237162,-0.433030173,-2.05954138,2.135180705
6.3197115,1.628325014,1.178361889,-2.325884392,3.074039248
6.3296455,2.437403951,2.729585516,-2.56202098,4.467160912
6.3395805,3.090757795,3.817084013,-2.772268437,5.639892409
6.3495145,3.456116095,3.861478997,-2.892332824,5.934757592
6.3594495,3.502160579,3.26482385,-2.30873714,5.315493455
6.3693845,2.949068942,2.285204728,-1.474426882,4.011620982
6.3793185,2.016490963,0.883523056,-0.773538976,2.333497662
6.3892535,1.743148834,-0.802958949,-0.224155643,1.932241363
6.3991875,2.203831075,-2.538760464,-0.078226975,3.362780926
6.4091225,2.387854646,-4.075825059,0.065833362,4.724249544
6.4190565,1.794942008,-4.83412473,0.081783105,5.157253842
6.4289915,0.566282225,-4.862112427,-0.271027216,4.902475759
6.4389265,-0.081648473,-4.519923427,-0.498014959,4.548009802
6.4488605,-0.416551331,-4.006261904,-0.553611601,4.065726904
6.4587955,-0.558806559,-3.521166953,-0.494369804,3.5993448
6.4687295,-0.425973022,-3.265019147,-0.385595806,3.315190367
6.4786645,-0.173768359,-3.197430012,-0.28162661,3.214508931
6.4885985,0.046480833,-3.131126679,-0.372535465,3.153553142
6.4985335,0.245073911,-3.008785971,-0.411608899,3.046682807
6.5084675,0.484608828,-2.924284934,-0.280377645,2.977398145
6.5184025,0.780193838,-2.863404894,-0.148742641,2.971517186
6.5283375,1.12852987,-2.890806701,-0.064314694,3.103945784
6.5382715,1.462947482,-2.91638593,0.094736588,3.264122738
6.5482065,1.551920908,-2.868623534,0.205339523,3.26796937
6.5581405,1.318171885,-2.77604106,0.615559196,3.134149679
6.5680755,1.059171733,-2.367377404,1.25466279,2.881058703
6.5780095,0.775979238,-1.813822083,1.526068321,2.494189016
6.5879445,0.182947683,-1.485606174,1.396953029,2.047430908
6.5978795,0.092273302,-1.251957284,1.121293648,1.683214439
6.6078135,0.236593694,-1.236931694,0.535180446,1.368354742
6.6177485,0.087081706,-1.001533901,0.301516353,1.049554901
6.6276825,-0.296293035,-0.037808096,0.741426872,0.799332735
6.637617625,-0.37118812,1.282880284,1.215065373,1.805532138
6.647551625,-0.148811273,2.820636604,1.999350142,3.460568832
6.657486625,0.726126536,4.096269849,2.744418733,4.9838259
6.667421625,1.627977835,5.173611732,3.675606537,6.551843526
6.677355625,2.075383242,5.739441528,4.084931513,7.344049981
6.687290625,2.183921305,5.798967937,4.431067969,7.617867467
6.697224625,1.794901662,5.564200475,4.51727113,7.388351464
6.707159625,1.845415905,5.363498306,3.295176162,6.559791145
6.717093625,1.978171674,5.818878876,1.61488168,6.354554066
6.727028625,0.292062282,6.931187108,1.342333749,7.066011251
6.736963625,-0.241351866,6.658793982,1.343435218,6.7972499
6.746897625,1.656388579,5.364015784,0.12666604,5.615365771
6.756832625,2.847332945,4.365597864,-1.11320461,5.329631705
6.766766625,2.567983679,3.661703027,-1.681184428,4.777969267
6.776701625,1.068090418,2.930930294,-1.332895027,3.392311702
6.786635625,0.145305063,2.519495643,0.013131074,2.523716363
6.796570625,0.02492171,2.799657379,0.46404322,2.83796382
6.806505625,0.441741647,3.096923976,-0.824312323,3.235052488
6.816439625,0.201439503,4.553103452,-2.529146472,5.212284605
6.826374625,-1.248491931,6.357747161,-4.082851074,7.65828662
6.836308625,-2.758302947,7.674854121,-4.205505778,9.175941356
6.846243625,-4.238848355,8.195125337,-3.820416341,9.986165214
6.856177625,-4.936529356,7.7357786,-4.060129671,10.03475189
6.866112625,-4.238986642,6.643126368,-5.437785426,9.574426669
6.876047625,-3.27891564,4.959870272,-6.270715449,8.641381436
6.885981625,-3.120640575,2.952265615,-5.3965532,6.897612363
6.895916625,-3.849372337,0.988364217,-3.279004517,5.152320045
6.905850625,-4.187561257,-0.457517143,-1.278329103,4.402171796
6.915785625,-3.514744079,-1.300495605,0.076024328,3.74839892
6.925719625,-2.705277764,-1.837371744,0.643980757,3.333042742
6.935654625,-1.82061187,-2.077478884,0.571306883,2.820804433
6.945589625,-0.154868184,-2.38473194,-0.345186868,2.414556803
6.955523625,2.305845107,-2.889109839,-1.77062987,4.098659227
6.965458625,4.275625295,-3.934806005,-3.09382846,6.582966239
6.975392625,4.370301365,-4.748605108,-2.995730308,7.114997158
6.985327625,3.141448477,-5.701532274,-3.577368636,7.427902474
6.995262625,0.917337065,-5.816701373,-4.118734851,7.186062825
7.005196625,0.267429863,-6.101512815,-4.88144917,7.818473212
7.015131625,0.564324577,-6.557520207,-5.436787891,8.536872734
7.025065625,0.528103415,-6.71546812,-5.40996262,8.639681756
7.035000625,0.542131031,-6.836841114,-5.473790241,8.774889292
7.044934625,0.637095661,-7.065361412,-5.516615249,8.98656033
7.054869625,0.520365063,-7.086882674,-5.174962438,8.790615568
7.064804625,0.300504638,-6.785201429,-4.809771076,8.322449115
7.074738625,0.097910164,-6.240470726,-4.204270261,7.525220908
7.084673625,-0.195823837,-5.87972851,-3.490187235,6.840391894
7.094607625,-0.285439872,-5.6883737,-2.942927611,6.410919919
7.104542625,-0.723714998,-5.458467613,-2.796219217,6.175554549
7.114476625,-1.032159424,-5.210729272,-2.629636136,5.927228596
7.124411625,-1.156771776,-4.726605543,-2.394514332,5.42334028
7.134346625,-1.225488108,-3.748294444,-1.952027457,4.400220851
7.144280625,-1.117008516,-2.628533351,-0.910091634,2.997526044
7.154215625,-0.878416536,-1.719150399,1.027920046,2.187170164
7.164149625,-0.843580287,-0.672380099,3.803802647,3.953813005
7.174084625,-0.663668624,0.717491952,6.696726624,6.767673029
7.184019625,-0.553671681,2.533137782,9.081653277,9.444562753
7.193953625,-0.231186774,4.623230864,10.77937246,11.73126513
7.203888625,0.158674722,6.803756983,10.55292149,12.55708719
7.213822625,0.311075966,8.306141742,9.467755451,12.59869645
7.223757625,0.05351898,8.659322923,8.237865559,11.95195242
7.233691625,-0.189167805,7.847634081,6.756003358,10.35686857
7.243626625,0.482250719,5.748887705,5.245072893,7.796990782
7.253561625,1.519683162,2.988021339,3.940653806,5.173631302
7.263495625,2.006853582,0.430892431,2.937365155,3.583468103
7.273430625,1.085914485,-1.437098842,2.644756451,3.199875003
7.283364625,-0.651777581,-2.376392056,2.717506338,3.668363929
7.293299625,-2.364766476,-1.250192009,2.485099981,3.651139886
7.303233625,-3.038943863,2.465693073,2.248647351,4.51345068
7.313168625,-3.611732723,8.347478634,2.741952962,9.499648354
7.323103625,-5.965586686,13.47690588,0.94275652,14.76834474
7.333037625,-8.161116176,15.4419469,-4.877724493,18.13421456
7.342972625,-6.562206166,10.10229763,-10.7372538,16.13714926
7.352906625,-0.734125673,0.191895093,-10.16369106,10.19197626
7.362841625,2.76957404,-5.891651568,-7.516553037,9.94387591
7.372776625,1.858715397,-8.188851274,-7.943488657,11.55902765
7.382710625,-2.076765231,-6.25937302,-6.780676854,9.458873243
7.392645625,-4.120656831,-2.744066731,-1.473510624,5.165360443
7.402579625,-3.371365089,-1.046699549,2.991977565,4.627484442
7.412514625,-2.205267735,-0.79736141,3.282076937,4.033735244
7.422448625,-0.848741478,-1.338361005,0.650774052,1.713207268
7.432383625,1.018014278,-1.843879695,-2.347941844,3.15421564
7.442318625,2.897352951,-1.277750521,-4.259543406,5.307637002
7.452252625,4.237222829,1.107144556,-4.656189864,6.392177284
7.462187625,4.650954267,2.876682751,-3.93988285,6.740130275
7.472121625,3.74607601,3.260009837,-1.977961612,5.345379477
7.482056625,2.413695246,3.097110502,-0.194048622,3.931370381
7.491990625,1.408391645,2.360178312,0.563655217,2.805657836
7.501925625,0.950370326,1.257147857,0.882255087,1.806100365
7.511860625,1.249399565,-0.167892857,0.776829204,1.480760243
7.521794625,2.214557645,-1.727327145,0.473868881,2.848240922
7.531729625,2.921588783,-3.392099608,-0.242208337,4.48337882
7.541663625,2.4709275,-4.625625883,-0.863811069,5.31489107
7.551598625,1.518505094,-4.812881795,-1.089210122,5.162951441
7.561533625,0.394048687,-4.260925688,-1.322542824,4.478825918
7.571467625,-0.452604897,-3.642474459,-1.54118045,3.980918054
7.581402625,-1.017158977,-3.103409123,-1.585315234,3.630287173
7.591336625,-1.191530111,-2.847037953,-1.25500266,3.331726397
7.601271625,-1.075513166,-2.912685227,-0.932593913,3.241943123
7.611205625,-0.782194025,-3.088163677,-0.514785212,3.227008863
7.621140625,-0.453750074,-3.069124559,-0.117285644,3.104701372
7.631075625,-0.017011451,-2.927146561,0.363725026,2.949707151
7.641009125,0.581924257,-2.926364204,0.85334923,3.103296345
7.650944125,1.533107784,-2.937002628,0.952512599,3.447271989
7.660878125,2.594543194,-2.815025032,0.444784758,3.85406977
7.670813125,3.123886657,-2.585405458,-0.430324667,4.077765141
7.680748125,2.738520647,-2.393416809,-0.497298053,3.6708643
7.690682125,1.826467856,-2.1197601,0.210868705,2.806035161
7.700617125,1.010843838,-1.696254457,1.212542957,2.317184686
7.710551125,0.70923393,-1.107548014,2.116391519,2.491744054
7.720486125,0.794991972,-0.697510262,2.445105611,2.664033455
7.730420125,0.929870426,-0.695718091,2.007573667,2.319274606
7.740355125,1.039506012,-0.502375227,1.189481539,1.657654955
7.750290125,1.097946009,0.444509427,0.503380948,1.287037858
7.760224125,0.760466502,2.100636197,0.78285688,2.367244522
7.770159125,0.21761641,3.674608417,2.213139549,4.295124048
7.780093125,0.346963398,4.735571079,3.552494581,5.930112545
7.790028125,1.295657181,5.414633961,4.043776178,6.881069266
7.799962125,2.155081814,5.408839955,4.106243445,7.124686836
7.809897125,2.444107199,4.653912374,3.936099994,6.566996539
7.819832125,2.624581218,3.983745446,3.889716371,6.155367397
7.829766125,3.201402025,3.858595151,3.158227354,5.925549045
7.839701125,3.473599269,4.438464696,2.147196844,6.03127806
7.849635125,1.622239816,5.505159384,1.80792502,6.017228161
7.859570125,0.675878342,5.300667635,1.750708991,5.623065968
7.869505125,1.402106765,4.045247045,1.008710189,4.398570595
7.879439125,2.279155053,3.01923553,-0.255711604,3.791532588
7.889374125,1.689977178,2.280146887,-0.39075305,2.864922448
7.899308125,0.247686739,2.206207675,0.377096293,2.25186648
7.909243125,-0.498180581,2.602673455,0.226042905,2.659546653
7.919177125,-0.023046216,2.962930351,-1.167456247,3.184720001
7.929112125,0.23235037,4.101079769,-2.519478101,4.818777009
7.939047125,-0.838040343,5.675874692,-3.394460129,6.666350179
7.948981125,-2.287054787,7.089556605,-3.34369051,8.165335185
7.958916125,-3.660016106,8.489907451,-2.918713707,9.695005731
7.968850125,-4.789752549,9.399000966,-2.810789601,10.91711898
7.978785125,-5.244400463,8.906861874,-3.553695599,10.9299898
7.988720125,-4.516308678,7.09049216,-4.633040445,9.598811745
7.998654125,-3.056436101,4.75955285,-4.950046949,7.516522452
8.008589125,-1.965123466,2.705151756,-4.047547925,5.249971472
8.018523125,-1.910929132,1.207685675,-2.897332193,3.674872607
8.028458125,-2.235518598,0.239836414,-1.872885101,2.926220003
8.038392125,-1.974326252,-0.501825589,-0.930739907,2.239658422
8.048327125,-1.449239708,-0.848099454,0.153337383,1.686143757
8.058262125,-0.704874392,-1.107926329,0.28628114,1.343988672
8.068196125,0.406534246,-1.334819931,-0.363687458,1.441971882
8.078131125,1.380632865,-1.644624712,-1.753879936,2.772549798
8.088065125,2.08506243,-2.095685944,-2.731265422,4.024822445
8.098000125,2.737368453,-3.088753662,-3.48930723,5.404521271
8.107935125,3.162018689,-4.207742922,-4.454467941,6.895342437
8.117869125,2.543347897,-5.757997667,-4.834820548,7.9371686
8.127804125,1.329145062,-7.008399591,-4.787568029,8.590989411
8.137738125,0.052688676,-7.752488773,-5.427889014,9.46392294
8.147673125,0.069819848,-8.19209414,-5.573128003,9.908331694
8.157608125,0.10292269,-8.25377174,-5.496400255,9.916942915
8.167542125,-0.221106613,-8.050786234,-5.694036144,9.863371367
8.177477125,-0.242003904,-7.762969322,-5.798990741,9.692809304
8.187411125,-0.466566586,-7.307716221,-5.522443753,9.171574879
8.197346125,-0.732798574,-6.769896342,-4.914898751,8.397899736
8.207280125,-0.964619405,-6.429763808,-4.24076098,7.762500042
8.217215125,-1.068351496,-6.412130359,-3.738140169,7.498698727
8.227150125,-0.92008438,-6.458560175,-3.304939258,7.313151051
8.237084125,-0.840116981,-6.339324338,-2.756408449,6.963520456
8.247019125,-0.659831828,-5.936016147,-2.08570884,6.32628225
8.256953125,-0.347014854,-5.292599646,-1.091526058,5.415113984
8.266888125,0.031499974,-4.216012055,0.125055571,4.217983972
8.276823125,-0.039392838,-2.318164898,1.586097592,2.809118342
8.286757125,-1.171372127,0.53328244,4.428214527,4.611462536
8.296692125,-3.736677781,4.403205401,9.814909322,11.387863
8.306626125,-4.519484301,9.232455307,15.19328353,18.3439318
8.316561125,-2.326130999,14.27841647,15.38236611,21.11637397
8.326495125,0.665267546,16.61801726,11.19709755,20.04934094
8.336430125,2.681220857,14.41946652,7.731813018,16.57983391
8.346365125,4.095160632,9.238030043,4.281503794,10.97464416
8.356299125,4.666838813,4.748384083,1.84092919,6.907644764
8.366234125,4.02416257,1.210937312,1.413939775,4.433901132
8.376168125,3.672147324,-2.063472463,2.318720968,4.808227481
8.386103125,3.675376741,-5.072909814,3.416657914,7.135570017
8.396038125,2.546705076,-7.18159178,3.420676121,8.352364477
8.405972125,0.320510741,-6.901399637,2.354653863,7.299071099
8.415907125,-1.529928799,-4.034941912,0.506936055,4.34493067
8.425841125,-1.641748174,-0.257249422,-1.435937585,2.196231108
8.435776125,-1.97645537,3.458127537,-3.01282932,4.994212891
8.445711125,-3.492210372,6.886861705,-6.000871124,9.779307321
8.455645125,-4.71060493,10.16844952,-8.837925541,14.272214
8.465580125,-6.708174888,13.43852242,-12.01647489,19.23510239
8.475514125,-11.29453438,12.84998379,-14.5536262,22.46100234
8.485449125,-7.088330444,7.97588457,-8.036793846,13.35848863
8.495383125,-2.411375217,3.153951285,0.036054516,3.97031977
8.505318125,-1.09848863,-0.44009244,3.085115524,3.304284555
8.515253125,-2.406842309,-2.711651521,3.865644554,5.29991997
8.525187125,-2.923896971,-3.781217192,3.194175744,5.748872553
8.535122125,-1.481449827,-4.738837334,1.634204096,5.227035096
8.545056125,1.289744622,-5.438268991,-0.547884691,5.615904953
8.554991125,3.335758177,-4.991448745,-3.178161097,6.792830864
8.564926125,4.616504227,-3.23977964,-5.883343259,8.149970018
8.574860125,5.324979773,-0.134761364,-7.110639911,8.884524193
8.584795125,4.458672674,3.016451086,-5.743994755,7.872243321
8.594729125,0.815639952,6.577498389,-3.822350892,7.651086193
8.604664125,0.14510772,7.621557335,-3.003419981,8.193273097
8.614598125,2.246238591,4.817827955,-1.650404685,5.566047937
8.624533125,3.341260407,1.011341436,0.449016899,3.519722828
8.634468375,2.751013808,-2.164272029,1.883100479,3.974697196
8.644402375,1.386571298,-4.280351307,1.831298533,4.85774038
8.654337375,0.272722763,-5.20189179,1.253144268,5.357651207
8.664271375,-0.384795833,-5.674143332,0.112812086,5.688294731
8.674206375,-0.649502794,-5.098484951,-1.065077348,5.248884875
8.684141375,-1.140538809,-4.297454998,-1.938042233,4.850253182
8.694075375,-1.572287053,-3.881438468,-2.328109843,4.791424276
8.704010375,-1.676000433,-3.599202139,-1.809027805,4.363005282
8.713944375,-1.698117964,-3.389150273,-0.966274606,3.911985532
8.723879375,-1.489113919,-3.207536924,0.212577279,3.542730935
8.733814375,-1.040891217,-3.254812247,1.306807675,3.658552117
8.743748375,-0.195299634,-3.382671558,1.953303904,3.911010733
8.753683375,1.100515641,-3.422308078,1.694961053,3.974445902
8.763617375,2.471080112,-3.310266656,1.014090724,4.253525861
8.773552375,3.291269052,-2.983187445,0.170560357,4.445329025
8.783486375,3.409571673,-2.67967076,-0.35638604,4.351186664
8.793421375,2.878846513,-2.505792693,-0.018056805,3.816684466
8.803356375,1.879131973,-2.370120918,1.121947367,3.226046502
8.813290375,1.027271956,-1.901478862,2.343577482,3.187987602
8.823225375,0.879862626,-1.124100312,3.00193128,3.324056432
8.833159375,0.700090127,-0.382978592,2.714505547,2.829370805
8.843094375,0.647646669,0.108419073,2.214058732,2.309384544
8.853029375,0.398665283,0.316603923,1.481483302,1.56651359
8.862963375,-0.135923717,0.460364152,0.933174761,1.04939294
8.872898375,-0.609412603,0.989152422,0.960308253,1.507314889
8.882832375,-0.600148494,1.964925245,1.628555832,2.621698597
8.892767375,-0.187689994,2.945272345,2.348006602,3.771338187
8.902702375,0.843996755,3.646339468,2.590737534,4.551927395
8.912636375,2.038772655,4.309373962,2.46344131,5.366175638
8.922571375,2.728258198,4.834970822,2.805574762,6.220256055
8.932505375,2.881185984,5.140277925,3.96763052,7.103927207
8.942440375,2.595488689,5.36552729,3.463201751,6.893417947
8.952375375,2.112646085,6.119722214,1.841274322,6.730866556
8.962309375,0.294901325,6.854882698,2.123105146,7.18219737
8.972244375,0.29223324,6.723881679,1.890604795,6.990734696
8.982178375,2.406641457,5.677508404,-0.102199901,6.167371369
8.992113375,3.162377123,4.774636912,-1.528808327,5.927481894
9.002047375,2.544595985,4.384704226,-1.737723495,5.35913079
9.011982375,0.707116068,4.31504927,-0.862866012,4.456927315
9.021917375,-1.26827964,4.427345631,-0.00497715,4.60542586
9.031851375,-1.724428681,4.774569084,-0.055359172,5.076734073
9.041786375,-0.750189217,5.091491096,-0.995078063,5.241778877
9.051720375,-0.506147339,5.911284764,-2.474379112,6.428220957
9.061655375,-1.617363531,7.089530293,-3.669873927,8.14526115
9.071590375,-3.270082836,7.815853295,-3.883841089,9.320151613
9.081524375,-4.625019819,7.84573549,-3.932622655,9.920276945
9.091459375,-4.754635341,6.795260979,-4.366113296,9.372570315
9.101393375,-3.814187594,4.956588814,-5.867924151,8.576032505
9.111328375,-2.754395545,3.044104908,-6.427886851,7.62699147
9.121262375,-2.502645137,1.349516323,-5.322211701,6.034100129
9.131197375,-3.211370358,-0.369782596,-3.496127422,4.761569667
9.141132375,-3.469835709,-1.613444434,-1.671886185,4.175903041
9.151066375,-3.051337329,-2.248951406,-0.216719447,3.796762995
9.161001375,-2.177623854,-2.833101699,0.595329584,3.622558239
9.170935375,-1.04257083,-2.831035877,0.907110724,3.150328227
9.180870375,0.384627726,-2.568885904,-0.278918034,2.612452592
9.190805375,2.014436544,-2.461885366,-2.221368921,3.879860052
9.200739375,3.832166321,-3.160641085,-3.843302928,6.28061527
9.210674375,4.145235895,-4.065802932,-4.178615018,7.153639463
9.220608375,3.412469553,-4.97535019,-4.078743989,7.282527755
9.230543375,1.78010236,-5.853002057,-4.710850806,7.721302533
9.240478375,0.794241335,-6.215290861,-5.146001764,8.10814368
9.250412375,-0.095685445,-6.521831142,-5.04435903,8.245543958
9.260347375,-0.59573962,-7.063234779,-4.994238451,8.671021217
9.270281375,-0.613005424,-7.101228232,-4.875257553,8.635470703
9.280216375,-0.884595581,-7.067471087,-4.638660496,8.499931065
9.290151375,-0.823127458,-6.740281364,-4.097025894,7.930608606
9.300085375,-0.706335903,-6.038450595,-3.589699829,7.060293256
9.310020375,-0.586795573,-5.320210199,-3.107218584,6.189004195
9.319954375,-0.439436236,-4.767557103,-2.671754215,5.482789028
9.329889375,-0.453186695,-4.464968956,-2.48040993,5.127744082
9.339824375,-0.490451,-4.211835973,-2.553881364,4.949991361
9.349758375,-0.599241664,-3.886524376,-2.169386589,4.491146899
9.359693375,-0.736589543,-3.725400256,-1.477287925,4.074745493
9.369627375,-0.55753976,-3.447818311,-0.160613658,3.496297819
9.379562375,-0.845285189,-3.0889665,1.257713283,3.440648746
9.389497375,-1.111427057,-2.357459942,2.911730377,3.907820526
9.399431375,-1.039519753,-1.370074548,4.744681041,5.046751804
9.409366375,-1.150588053,-0.023714553,6.90925888,7.004446696
9.419300375,-1.082999502,1.840219923,8.642755423,8.90261302
9.429235375,-0.69787469,4.225636572,9.208012776,10.15532042
9.439169375,-0.888620659,6.872916681,9.332067304,11.62385954
9.449104375,-1.459514143,8.776577724,8.834625957,12.53830586
9.459039375,-1.106077147,8.888236154,7.976119629,11.99344125
9.468973375,0.218947382,7.064657992,6.551100549,9.637128665
9.478908375,1.069861247,4.345887485,4.817741416,6.575862945
9.488842375,1.00151212,1.306443978,3.888627035,4.222705603
9.498777375,0.3929804,-1.527575734,3.631527886,3.959282259
9.508712375,-0.530747233,-3.47366125,3.139090587,4.711889729
9.518646375,-1.537777225,-3.487682288,2.972905701,4.833927476
9.528581375,-2.518405137,-1.850680007,2.919432914,4.276735842
9.538515375,-2.592191736,1.074572057,1.621805368,3.241051643
9.548450375,-1.890594563,5.253250809,-0.183396749,5.586110116
9.558385375,-2.882288477,8.45434644,-4.059380935,9.81132683
9.568319375,-4.276516703,9.351573615,-9.54480772,14.03010615
9.578254375,-4.067128496,7.773731123,-12.68510634,15.42350001
9.588188375,-2.734486653,3.058920583,-12.10865976,12.78491507
9.598123375,0.81901935,0.695957242,-7.657549871,7.73260753
9.608058375,2.316127874,-0.484254706,-3.262058117,4.029885123
9.617992375,0.789396333,-0.495519367,2.777575369,2.929780017
9.627927375,-2.092583704,0.270134931,6.429554477,6.766908468
9.637861125,-2.085712494,-0.082690739,4.454649205,4.919444471
9.647796125,-0.153124106,-1.161133068,0.857697366,1.451661725
9.657731125,1.58387448,-2.183572519,-1.882616329,3.289512358
9.667665125,3.206219546,-2.481178254,-4.165874519,5.812968245
9.677600125,4.272117258,-1.462815481,-5.98370253,7.496366518
9.687534125,3.841235937,0.095711319,-5.598033634,6.789862646
9.697469125,2.894785731,1.651707444,-4.055798053,5.249516145
9.707403125,1.422861457,3.260246065,-2.82884551,4.544898904
9.717338125,-0.790642959,4.190595378,-1.996735852,4.708838495
9.727273125,-1.725261178,3.379234564,-1.295595054,4.009279102
9.737207125,-1.113001785,1.091268196,-0.44805284,1.621847896
9.747142125,-0.171629813,-1.626843914,0.689115999,1.775094018
9.757076125,0.553003782,-3.885688224,1.243147869,4.117013819
9.767011125,0.604759973,-5.459708977,0.606655348,5.526498661
9.776946125,0.742914915,-5.851792268,-0.309733445,5.906888363
9.786880125,0.686527802,-5.533441781,-1.145829735,5.692382994
9.796815125,0.351298158,-5.046140091,-1.835808345,5.381183187
9.806749125,0.014620378,-4.279861895,-2.163891522,4.795816731
9.816684125,-0.132576552,-3.57370711,-2.077006429,4.135567041
9.826619125,-0.122009317,-3.095355753,-1.63988569,3.505044734
9.836553125,0.115045284,-2.980425805,-1.009617238,3.148888751
9.846488125,0.577967008,-3.198113551,-0.029882342,3.250056785
9.856422125,0.781788447,-3.627914307,0.84155218,3.805412654
9.866357125,0.734023785,-3.804347023,1.213159107,4.060000272
9.876292125,0.876400416,-3.802960063,1.088210614,4.051516416
9.886226125,1.249913828,-3.507129543,0.645594589,3.778760985
9.896161125,1.644963558,-2.975037012,0.339066002,3.416389334
9.906095125,1.554371038,-2.36052973,0.323551,2.8447944
9.916030125,1.332728966,-1.665567099,0.719375925,2.251173468
9.925965125,1.094081803,-0.977468516,1.206884606,1.899744758
9.935899125,1.249544869,-0.31882645,1.813661284,2.225394333
9.945834125,1.645194815,0.274712716,2.033466307,2.630041497
9.955768125,1.458634722,0.56264014,1.737129418,2.33704895
9.965703125,0.543328724,1.097204874,1.687140402,2.084588058
9.975637125,-0.542814717,1.537537635,2.03234715,2.605591053
9.985572125,-0.006884073,1.893329598,2.391315905,3.050104279
9.995507125,1.342324101,2.533789161,2.49527326,3.801093283
10.00544113,2.460669437,3.198062096,2.816719555,4.921016592
10.01537613,3.103969286,3.783801661,3.352646105,5.932285921
10.02531012,3.617426741,4.16317486,4.000325811,6.813252361
10.03524513,3.69747103,4.414342008,4.544983424,7.335842263
10.04518013,2.724118077,4.716767603,5.468054123,7.718052333
10.05511413,1.698572001,5.312922229,5.217544202,7.637738995
10.06504913,1.886520515,5.23170265,2.799639838,6.22636776
10.07498312,1.225342804,5.558094812,0.654418037,5.72906152
10.08491813,-0.235840207,5.32147729,0.66662812,5.368252435
10.09485313,0.003331013,4.638996711,0.703100785,4.69197744
10.10478713,1.074515192,4.169445999,-0.201252977,4.310378823
10.11472212,1.57290832,3.638138748,-1.305425393,4.173036016
10.12465613,0.908116518,2.971842093,-1.727230666,3.555256223
10.13459113,-0.297849272,2.538573353,-0.986018899,2.739580648
10.14452613,-0.899566208,3.13494608,-0.31863817,3.276985898
10.15446013,-0.516023579,4.031666302,-1.592404252,4.365359642
10.16439513,-0.213733712,5.272805652,-3.266865113,6.206494116
10.17432913,-1.0151441,6.836058757,-4.537557752,8.267505502
10.18426413,-2.291517675,8.276847777,-4.387277001,9.643933941
10.19419913,-3.686091472,8.883240293,-3.586908661,10.26475242
10.20413313,-4.105418695,7.936038719,-3.579765702,9.625481583
10.21406813,-3.528322191,6.07411861,-4.804220315,8.510258939
10.22400213,-3.040543368,3.979986271,-5.197674193,7.218103055
10.23393712,-2.904138937,2.209720683,-4.030260047,5.436900266
10.24387213,-3.771615771,0.539909089,-2.627164518,4.628021257
10.25380613,-4.195575159,-0.536293171,-1.458915973,4.474248216
10.26374113,-4.046842458,-1.331636707,-0.795096783,4.333863068
10.27367513,-3.250920925,-1.774046983,-0.351171785,3.720087524
10.28361012,-2.207008159,-1.886655001,-0.13904211,2.906834157
10.29354513,-0.798864583,-2.026237979,-0.462944528,2.226688709
10.30347913,0.620934468,-1.871677358,-1.125578488,2.270608438
10.31341413,2.119021889,-2.27720983,-2.462606912,3.967413664
10.32334813,3.002506646,-2.843112132,-3.618459944,5.49468699
10.33328313,3.710547451,-3.371563017,-4.216510237,6.550920405
10.34321813,3.742697489,-3.780619606,-4.482268528,6.956407137
10.35315213,3.001664355,-4.426090819,-4.69326472,7.11526546
10.36308713,2.154470342,-5.35658105,-5.087054229,7.694986921
10.37302113,1.297114745,-6.007673775,-5.598768044,8.313895264
10.38295613,0.164858591,-6.174177918,-5.187104182,8.065587462
10.39289113,-0.695416959,-6.491501049,-4.641713912,8.010536728
10.40282512,-1.156753503,-6.756147199,-4.037088425,7.95497873
10.41276013,-1.433216876,-7.019768332,-3.510708039,7.978491648
10.42269413,-1.225495344,-7.004247483,-3.241803946,7.814768996
10.43262913,-1.090564922,-6.469711985,-3.357053152,7.369960033
10.44256412,-1.049192509,-6.059371347,-3.426070177,7.039512974
10.45249812,-1.016077388,-5.918599046,-3.098213287,6.757303715
10.46243313,-0.984301133,-5.813195967,-2.286587595,6.323810473
10.47236713,-0.863955641,-5.483258053,-0.989548863,5.638416904
10.48230213,-0.318846769,-5.07080891,0.765522151,5.138169949
10.49223712,0.058764225,-4.251296493,2.272177716,4.820764118
10.50217113,0.140957804,-2.907914484,3.97067575,4.923626881
10.51210613,0.621362996,-1.253548311,5.565352961,5.738521492
10.52204013,1.010118198,0.694519411,6.456625332,6.571963684
10.53197513,0.934970514,2.747236506,6.70651077,7.30744586
10.54191013,-0.27962657,5.017386408,7.681549183,9.179245897
10.55184413,-1.855770739,7.184285592,8.374762326,11.1890343
10.56177913,-3.001623716,9.146633969,7.70255706,12.32882976
10.57171312,-3.813881493,10.57916029,6.38635057,12.93250935
10.58164813,-3.683734167,10.15776432,5.070061051,11.93547621
10.59158213,-1.331641969,7.126760684,3.472959584,8.038994742
10.60151713,0.891699802,3.415741071,1.93607099,4.026262097
10.61145212,1.44000754,0.085183407,1.687977138,2.220392926
10.62138612,0.496542483,-2.561421348,2.451000189,3.579781514
10.63132113,-0.716459772,-3.959514,3.176823839,5.126721703
10.64125513,-2.074120974,-3.171398792,2.893746681,4.767967907
10.65119013,-2.896504228,0.240070887,2.288689084,3.699387584
10.66112512,-3.487072424,4.961373591,1.497808143,6.246465499
10.67105913,-4.097712942,8.72503978,-0.73939036,9.667692001
10.68099413,-3.210799378,10.72836603,-4.914590603,12.22948368
10.69092813,-2.191369342,8.783810729,-10.50307515,13.86621859
10.70086313,-0.232307978,1.525584757,-11.48700718,11.59019886
10.71079813,1.913024628,-5.316687836,-10.12230213,11.59257664
10.72073213,0.730690726,-6.238282113,-8.463977389,10.53987599
10.73066713,-3.676391526,-2.375318508,-3.801614619,5.79743619
10.74060112,-6.061673981,0.021358709,1.581516298,6.264626202
10.75053613,-6.372366954,-0.133831072,4.943541922,8.06619973
10.76047113,-4.162182587,-1.207682751,4.082387682,5.953834958
10.77040513,-0.752452308,-1.914349169,1.336002238,2.452716697
10.78034012,2.339826639,-1.547670275,-1.410933722,3.140192024
10.79027413,5.458541873,0.034276378,-4.410593066,7.017847636
10.80020913,6.352011627,2.304976503,-5.136783628,8.488080727
10.81014413,5.546128485,3.712572634,-4.247187362,7.910836696
10.82007813,4.119342377,3.967163912,-2.921819455,6.422180319
10.83001312,2.054400947,3.856674925,-0.819131763,4.445838681
10.83994713,0.617570492,2.425625027,0.029457103,2.503181537
10.84988213,0.698752869,0.001104539,1.336390785,1.508044138
10.85981713,1.872429018,-2.711304197,2.05684406,3.884297666
10.86975113,2.137168723,-4.919818599,1.724224028,5.634274904
10.87968613,1.651159268,-6.297216784,0.26631246,6.515534397
10.88962013,1.4041223,-6.807246602,-0.58580447,6.975194091
10.89955513,0.98006351,-6.760208091,-1.538660447,7.002029269
10.90949013,0.449567268,-6.022606979,-1.952370104,6.347098122
10.91942413,-0.148150464,-4.903915926,-1.887552549,5.256728507
10.92935913,-0.784635383,-3.759045135,-1.444964663,4.102925284
10.93929313,-1.261459594,-2.612288032,-1.167366784,3.12699125
10.94922812,-1.32027659,-1.728570263,-0.843432791,2.332908979
10.95916313,-1.043120834,-1.225213873,-0.28609973,1.634350992
10.96909713,-0.476192236,-1.208675024,0.387439944,1.355641571
10.97903213,0.404302839,-1.446884158,0.797419882,1.700827157
10.98896613,1.286255443,-1.979204146,0.87624795,2.517838872
10.99890113,1.904315931,-2.601221591,0.80814426,3.323532771
11.00883613,2.236936255,-3.079721467,0.788995214,3.887297464
11.01877013,1.980185308,-3.18562039,0.921257477,3.86238611
11.02870513,1.302416123,-2.691437112,1.273950416,3.250087868
11.03863913,1.070672548,-1.732296109,1.81381799,2.727109315
11.04857413,1.063057427,-0.786617151,1.979848509,2.380894318
11.05850913,1.192555566,-0.243969811,1.868395901,2.229935714
11.06844313,1.192312907,0.050638057,1.300050194,1.764739297
11.07837813,1.088107118,0.869153523,1.235645306,1.861779866
11.08831213,0.612856467,1.982681485,1.600443735,2.620694387
11.09824713,0.805580548,3.191162381,2.502580233,4.134656598
11.10818213,1.833062346,3.710210944,2.543074832,4.857263881
11.11811612,3.104878236,3.761510906,2.460518872,5.462910055
11.12805113,3.914216497,3.774247895,3.038710266,6.22894839
11.13798513,4.304864882,3.815474274,3.779726737,6.883025482
11.14792013,4.015099971,4.07484682,4.730747126,7.423299317
11.15785512,3.553264659,4.963621261,4.498546007,7.582884803
11.16778913,3.625507593,5.670257272,2.42835787,7.154931501
11.17772413,2.428823016,5.901428112,0.083209387,6.382237759
11.18765813,0.950830428,5.724077384,-0.813719507,5.859290045
11.19759313,-0.434819567,5.480248491,-0.249590739,5.503134299
11.20752813,-0.548696943,5.661108134,0.316597455,5.69644166
11.21746213,-0.383598981,5.449799116,-0.035320106,5.463396937
11.22739713,-0.529205615,5.24255976,-0.136116164,5.270959972
11.23733113,-1.350518389,5.160883512,0.119723495,5.336005272
11.24726613,-1.908828812,5.418524698,-0.357780601,5.756044153
11.25720113,-1.894735999,5.694255999,-1.523203917,6.191504346
11.26713513,-2.214260022,6.335312564,-2.919837542,7.318782959
11.27707013,-2.755470848,7.548468309,-4.17310197,9.054654795
11.28700412,-3.362798041,8.447680029,-4.885417675,10.3217738
11.29693913,-3.92227513,8.142666457,-5.445598476,10.55186249
11.30687313,-4.112755489,6.572911248,-5.953632054,9.775666454
11.31680813,-3.526443481,3.890860087,-6.155118334,8.090740235
11.32674312,-2.089641385,1.705198942,-5.315288597,5.960419232
11.33667713,-1.579557919,0.389511686,-4.368979894,4.662049752
11.34661213,-1.672335982,-0.425926391,-3.124795314,3.569659183
11.35654713,-1.868321641,-0.992408736,-1.609287649,2.658064633
11.36648113,-1.595811571,-1.247610464,-0.319586003,2.050678339
11.37641613,-1.098659808,-1.648547024,0.300186111,2.003714642
11.38635013,-0.386853322,-1.905861935,0.838219998,2.117682217
11.39628513,0.470796827,-2.303836881,0.181915065,2.358475592
11.40622013,1.485657629,-2.32087099,-1.163752035,2.991310673
11.41615413,2.522284765,-2.874271359,-3.082176129,4.911533973
11.42608913,3.023664796,-3.386220233,-4.274974208,6.235738989
11.43602313,2.717531481,-4.775930901,-5.405287771,7.707893954
11.44595813,2.487666617,-6.635623221,-4.993670686,8.669297991
11.45589212,1.063773419,-7.62750103,-4.74254096,9.044450266
11.46582713,0.518538978,-7.979641991,-4.913633999,9.385487097
11.47576213,-0.293456551,-7.859492235,-5.173142785,9.413774015
11.48569613,-0.590626815,-7.423652474,-5.152034921,9.055546362
11.49563112,-0.647214852,-6.8948835,-5.103470871,8.602541513
11.50556613,-0.666212602,-6.4528071,-5.439011588,8.465542259
11.51550013,-0.561798433,-6.076566839,-5.013744178,7.897968898
11.52543513,-0.97490802,-5.777422702,-3.78887646,6.977438179
11.53536913,-1.257095524,-5.383192897,-2.996949452,6.288144476
11.54530413,-1.281546241,-5.109037421,-2.323719753,5.757108443
11.55523913,-1.302891356,-4.831371861,-1.793097796,5.315531925
11.56517313,-1.185858604,-4.348701165,-1.332274638,4.700257244
11.57510813,-0.798084491,-3.758294352,-0.978684736,3.964787397
11.58504213,-0.184289327,-3.264631476,-0.201911373,3.276056995
11.59497713,0.557626445,-2.68079518,0.860190327,2.870111051
11.60491213,0.712886831,-1.84601159,2.309522129,3.041358066
11.61484613,0.299698015,-0.653533353,4.339759603,4.398913293
11.62478113,-0.785006097,0.909034458,6.427748272,6.539000388
11.63471513,-1.5750025,2.786884137,8.613982444,9.189561992
11.64465063,-1.691217811,4.945197269,9.896587908,11.19185623
11.65458463,-1.164500771,7.58597235,10.26858894,12.81978772
11.66451963,0.024059392,9.528149003,9.365598162,13.36041284
11.67445463,0.838348637,9.662356051,7.751836224,12.41591389
11.68438862,1.28231822,7.992339805,6.158445985,10.17095337
11.69432363,1.962826679,5.270935712,4.835059699,7.417092028
11.70425863,2.099611911,2.457606958,4.253127841,5.342031315
11.71419263,1.859435627,-0.025236583,3.74450194,4.180841125
11.72412762,1.488157606,-1.923640979,2.788579829,3.700160151
11.73406163,0.427459823,-2.974387971,1.93718313,3.575246031
11.74399663,-1.30896939,-2.779637098,1.666341271,3.495207646
11.75393063,-2.666530312,-0.918749607,0.545942831,2.872723154
11.76386563,-3.563978512,2.551698014,-0.775565913,4.45136025
11.77380063,-5.196638067,6.002427653,-3.315750175,8.603974904
11.78373463,-5.222130758,9.703250892,-6.80577895,12.9515387
11.79366963,-5.257181892,11.33365693,-10.66434954,16.42614051
11.80360463,-3.709839061,8.201647906,-12.95958166,15.779122
11.81353863,-1.128191536,0.812294614,-10.01996416,10.11594387
11.82347363,1.246416608,-2.454656453,-5.971829758,6.575837842
11.83340763,-0.748879952,-1.421083319,-1.936237636,2.515813022
11.84334263,-3.465176063,0.244410106,2.850083182,4.493345702
11.85327763,-4.150792796,-0.223973503,4.92784741,6.446931446
11.86321163,-3.64816263,-1.746242888,3.205024375,5.160487966
11.87314663,-1.740141026,-2.825224915,0.412481303,3.343669756
11.88308063,0.362969274,-3.395239563,-1.736678597,3.830855118
11.89301562,1.9947133,-2.659061664,-3.54391233,4.858889244
11.90294963,3.577528265,-0.852603564,-5.208032536,6.375675981
11.91288463,4.24753381,1.106383833,-5.479628102,7.020822799
11.92281963,3.981074146,3.067573877,-4.685382088,6.871081877
11.93275363,2.679344193,4.473492442,-3.327068338,6.185499467
11.94268863,2.198467277,4.667206603,-1.491242013,5.370277329
11.95262363,1.672976983,2.731451363,-0.49489927,3.241080657
11.96255763,0.995162702,-0.060582417,0.953723265,1.379712687
11.97249263,1.069100598,-2.618734587,2.360815951,3.684317966
11.98242663,1.276874462,-4.580528063,2.711891842,5.474121216
11.99236163,1.121450865,-5.741921332,1.602447576,6.065900663
12.00229663,0.603580371,-5.516481348,0.188967684,5.552619608
12.01223063,-0.009101776,-4.699310741,-0.854714409,4.776415079
12.02216563,-0.590111529,-3.773984186,-1.59276751,4.138610467
12.03209963,-1.107868295,-3.129701128,-1.886781886,3.818683961
12.04203463,-1.250565208,-2.850486056,-1.882096512,3.637508951
12.05196963,-0.948578885,-2.931396317,-1.444648182,3.402924425
12.06190362,-0.361595946,-3.272567902,-0.724479229,3.371249391
12.07183863,0.065489839,-3.565615733,-0.105808876,3.567786427
12.08177263,0.420105195,-3.727231019,0.139645543,3.753430474
12.09170763,0.924383545,-3.868084012,0.398178502,3.996886912
12.10164262,1.417189804,-3.944063902,0.714892865,4.251486659
12.11157663,1.721761327,-3.849526119,0.999690786,4.333900677
12.12151163,1.680302521,-3.486454373,1.110890282,4.026519325
12.13144563,1.126764596,-2.925028115,1.579282077,3.50991735
12.14138063,0.498873476,-2.090529284,2.195555803,3.072401783
12.15131563,0.087055539,-1.124270466,2.356537836,2.612438194
12.16124963,-0.044072511,-0.363699737,1.968314291,2.002119136
12.17118463,0.152866993,0.099076391,1.501667891,1.512676734
12.18111863,0.35521762,0.388732252,0.901348293,1.043897057
12.19105363,0.389819396,0.997611004,0.762653507,1.314848755
12.20098863,0.664701681,2.026050868,1.083300707,2.391704594
12.21092263,1.119641664,3.082952054,1.889394422,3.785234749
12.22085763,1.694350019,3.836760478,2.75666865,5.019041243
12.23079162,2.317435166,4.371054486,3.671920452,6.161138115
12.24072663,2.490036201,4.707119113,4.23767248,6.80552119
12.25066163,2.380925987,4.780315728,4.813996274,7.189908702
12.26059563,1.961014335,4.961052579,4.585345584,7.034416396
12.27053062,2.407059972,5.087702685,3.094579242,6.423011522
12.28046463,2.931441926,5.219178498,1.266391135,6.118571931
12.29039963,1.393036564,5.851387056,1.388761518,6.173162877
12.30033463,0.654140733,6.13351755,1.955614139,6.470885897
12.31026863,2.075261035,5.411667084,1.17809701,5.914453614
12.32020363,3.31111801,4.416822982,-0.239752214,5.52533337
12.33013763,2.661639116,3.291394182,-0.963611784,4.341214821
12.34007263,1.511662829,2.750869966,-0.601046991,3.195882908
12.35000763,-0.263113083,2.629639644,-0.128993049,2.645916166
12.35994163,-1.27262836,3.006233661,-0.088440306,3.265707497
12.36987663,-1.334870071,4.080288824,-1.430671583,4.525202335
12.37981063,-1.32276955,5.728879702,-3.042933125,6.620364335
12.38974563,-1.717928185,7.328126512,-4.319583786,8.678220987
12.39968063,-2.345509402,8.989748495,-4.381908088,10.27220088
12.40961463,-3.480470917,9.26969447,-4.371114128,10.82347227
12.41954963,-4.389113319,7.56919435,-4.926178615,10.04112815
12.42948363,-4.282774686,4.823690373,-5.932567459,8.76387497
12.43941862,-3.491306977,2.522696993,-5.817590734,7.238617719
12.44935363,-2.95833941,0.704377817,-4.669192902,5.572188308
12.45928763,-3.431679411,-0.541122386,-3.343507492,4.821646956
12.46922263,-3.499021794,-1.221290976,-1.963470458,4.194034025
12.47915663,-2.979384416,-1.639099093,-1.0964155,3.572884589
12.48909163,-1.996995469,-1.83532171,-0.507479846,2.759335514
12.49902663,-1.106802275,-1.896513991,-0.076683602,2.197192975
12.50896063,0.000808743,-1.718377397,0.170786352,1.7268438
12.51889563,1.201674957,-1.875409051,-0.698551651,2.334342781
12.52882963,2.326957941,-2.099014179,-2.037651744,3.737996577
12.53876463,3.205399767,-2.636328859,-3.034153531,5.141099607
12.54869963,3.378662707,-3.138549135,-4.192934264,6.232700065
12.55863363,2.825304144,-3.71755797,-4.851149483,6.733218552
12.56856863,2.325630331,-5.139442357,-5.451728697,7.844983745
12.57850263,1.503776543,-6.55557133,-5.216218053,8.511509275
12.58843763,0.667104302,-7.318372187,-4.809172906,8.782467971
12.59837263,0.196188411,-7.736013658,-4.431035809,8.917313247
12.60830662,-0.367174299,-7.855376379,-4.050285006,8.845708771
12.61824163,-0.672276311,-7.881154414,-4.031473344,8.877912348
12.62817663,-0.678538386,-7.426156252,-3.973345588,8.449596806
12.63811042,-0.579042749,-6.643334529,-3.811288837,7.680827219
12.64804542,-0.712179172,-5.988827614,-3.383859712,6.915472646
12.65797942,-0.964330699,-5.495430787,-2.824061319,6.25340032
12.66791442,-1.0737093,-5.160603431,-2.491117351,5.830123934
12.67784942,-1.06388722,-4.743730284,-2.279286177,5.369355501
12.68778342,-0.912075302,-4.406604388,-1.896957795,4.883491831
12.69771842,-0.697019535,-3.994096772,-1.138183331,4.211188259
12.70765242,-0.476229987,-3.284129017,0.13422342,3.321191703
12.71758742,-0.446456111,-2.432575613,1.72065518,3.012872619
12.72752242,-0.468132471,-1.24784786,3.782983051,4.01088931
12.73745642,-0.804296938,0.155641186,5.967119241,6.023091381
12.74739142,-1.181086545,1.915279461,8.313893981,8.613018865
12.75732542,-1.11605966,4.332943504,10.23182983,11.16737795
12.76726042,-0.129000979,7.233153697,10.56058719,12.80082636
12.77719542,0.633962576,9.716320589,8.926445954,13.20947507
12.78712942,0.558054607,10.59854381,6.967211219,12.69577048
12.79706442,0.800276393,9.04375221,5.121052864,10.42377469
12.80699842,1.406367485,5.977182884,3.707622966,7.172938923
12.81693342,1.567690995,2.932388005,3.211711251,4.622947505
12.82686842,1.704524028,-0.002583885,3.269643125,3.687272027
12.83680242,1.353885947,-2.234126961,3.144923185,4.088382598
12.84673742,0.541404515,-3.185507539,2.787840157,4.267625788
12.85667242,0.315336247,-3.136034832,1.877062644,3.668448662
12.86660642,-0.577314605,-1.692837344,0.64265227,1.900524234
12.87654142,-2.018463813,1.050545263,-1.537483841,2.746215227
12.88647542,-4.338628167,4.600792174,-4.232855544,7.609733836
12.89641042,-5.440507305,8.550458878,-5.951270948,11.7527483
12.90634542,-5.862274572,10.60312335,-8.274686646,14.67184129
12.91627942,-4.883731923,8.972289879,-11.57750336,15.43992899
12.92621442,-1.552139887,2.47917032,-10.8528322,11.24007965
12.93614842,0.689839592,-0.457832308,-6.12110625,6.176846348
12.94608342,-0.616634353,-0.572088656,-1.309708478,1.556553775
12.95601842,-2.293485994,0.598724477,1.963509634,3.077973211
12.96595242,-3.026442808,1.207827762,3.869632355,5.058879178
12.97588742,-2.96710117,0.162390043,3.756595444,4.789788013
12.98582142,-1.313819217,-1.017026099,2.044383059,2.634381353
12.99575642,1.512378528,-1.186574888,-0.796767333,2.080886099
13.00569142,3.611750557,-0.514561409,-3.745327275,5.22847893
13.01562542,3.85148903,1.02110804,-5.469388458,6.766892897
13.02556042,3.903205898,2.836238145,-5.600463737,7.392188929
13.03549442,4.009618206,3.843748485,-3.853006382,6.759962926
13.04542942,3.340599964,3.598391715,-1.919011446,5.271682463
13.05536442,1.87080817,2.695309723,0.212033196,3.287791932
13.06529842,0.550426915,1.322030901,1.434859359,2.0272042
13.07523342,0.596476442,-0.360017161,1.647517622,1.788773551
13.08516742,1.405533379,-1.870378692,1.479488232,2.768162921
13.09510242,1.800755602,-3.842176754,0.231951151,4.249569894
13.10503742,1.683731913,-5.021979396,-0.648634264,5.336286782
13.11497142,0.892121094,-5.465715821,-0.901471231,5.610933957
13.12490642,0.278832372,-5.510486197,-1.173276711,5.640902753
13.13484142,-0.016252409,-5.207059559,-1.210328178,5.345898212
13.14477542,-0.47278013,-4.876287248,-1.259684379,5.058507992
13.15471042,-0.733049054,-4.805718956,-1.46638009,5.077653609
13.16464442,-0.700682815,-4.537926419,-1.301596198,4.772618281
13.17457942,-0.549449516,-4.268432928,-0.941926361,4.405523771
13.18451442,-0.297459116,-4.099308647,-0.512266377,4.141887269
13.19444842,0.054076805,-3.718972412,0.00958768,3.719377908
13.20438342,0.54936316,-3.29167134,0.422316905,3.363815046
13.21431742,0.838744201,-2.956411875,0.561438537,3.123952023
13.22425242,0.932128767,-2.561520166,0.751377736,2.827510938
13.23418742,1.135200374,-2.014019637,1.109871697,2.564521431
13.24412142,1.219312717,-1.429921385,1.268164596,2.267077438
13.25405642,0.997519934,-0.797273117,1.478664359,1.953749915
13.26399142,0.900901858,-0.016428337,1.494764083,1.745340572
13.27392542,0.800120126,0.783564904,1.067241987,1.546987923
13.28386042,0.5171374,1.088043457,0.395714997,1.268014201
13.29379442,0.338272243,1.107558539,0.423034321,1.232912026
13.30372942,0.471118059,1.282337077,1.365696738,1.931700853
13.31366442,0.98249142,2.192194823,2.410453842,3.403130214
13.32359842,1.665033102,3.535803119,2.929916972,4.884531952
13.33353342,1.806266603,4.449495469,2.631413105,5.475850974
13.34346742,1.805508512,4.887491097,2.554221672,5.802713035
13.35340242,2.183846022,5.005082113,3.385571777,6.425116859
13.36333742,3.167972324,5.135935197,3.169076278,6.815931591
13.37327142,4.069438146,6.101740857,1.57790725,7.502090348
13.38320642,3.492664116,7.421942164,1.237842544,8.295551957
13.39314042,2.077848866,8.103204183,1.855192888,8.568612174
13.40307542,2.421283616,7.935084454,1.26646598,8.392384388
13.41301042,2.722069505,6.921906992,-0.374620582,7.447335052
13.42294442,2.006268129,6.087228068,-1.16642721,6.514599741
13.43287942,0.731236125,5.158137075,-1.681786691,5.474439773
13.44281442,-1.097855231,4.213529912,-1.553944337,4.623187583
13.45274842,-2.189422804,3.330516733,-0.37805816,4.003603614
13.46268342,-2.554416969,1.870743558,0.753288606,3.254561604
13.47261742,-2.594203763,0.586110864,0.952981034,2.825171138
13.48255242,-2.121379048,0.373848165,-0.025503801,2.154219571
13.49248642,-1.75698817,1.266621516,-1.838125011,2.840781768
13.50242142,-1.708770714,2.429835023,-3.473030335,4.57011327
13.51235642,-1.814087254,2.904229569,-4.363510993,5.546682805
13.52229042,-2.100919348,2.93310312,-4.782046796,5.990402956
13.53222542,-2.085418379,2.587003502,-4.529721022,5.617822485
13.54216042,-1.668413524,2.076635131,-4.025591045,4.827152413
13.55209442,-1.059768807,1.919338013,-3.502240101,4.131906831
13.56202942,-0.662109391,1.515998247,-3.260414172,3.656082617
13.57196342,-0.342774453,1.006347329,-2.829390471,3.022528695
13.58189842,-0.294692579,0.346306025,-2.413513105,2.455975791
13.59183342,-0.324683898,-0.32350013,-1.743536797,1.802773566
13.60176742,-0.598485838,-0.73000324,-1.21009005,1.534733839
13.61170242,-0.686097228,-1.189336528,-1.42651392,1.979947663
13.62163642,-0.55341221,-1.558402255,-1.939496874,2.548829297
13.63157142,-0.356523596,-1.911723184,-2.415319017,3.100896735
13.6415065,0.004048904,-2.214639945,-2.802744709,3.572117633
13.6514405,0.389972739,-2.489160288,-3.286464395,4.141116503
13.6613755,0.754177676,-3.081459845,-3.647788993,4.834308976
13.6713105,0.716607853,-3.718604037,-3.581883271,5.212622235
13.6812445,0.353861066,-4.062296941,-3.652404785,5.47426112
13.6911795,0.444227445,-4.524736855,-3.664961096,5.839736421
13.7011135,0.4367376,-5.381230572,-3.517259844,6.443562602
13.7110485,0.319779692,-6.513528095,-2.838724966,7.112430438
13.7209835,0.328726809,-6.839843075,-2.313661957,7.228038894
13.7309175,0.01822621,-6.584955928,-2.0647723,6.901105811
13.7408525,-0.126225745,-6.049139305,-2.108282601,6.407251735
13.7507865,-0.042956424,-5.290526809,-2.494296482,5.849190893
13.7607215,-0.056156659,-4.561506486,-2.780193753,5.342281563
13.7706565,-0.085130197,-4.238462439,-2.550539095,4.947429704
13.7805905,-0.134979173,-4.085110438,-2.143358878,4.615228483
13.7905255,-0.040798947,-3.988527884,-1.650251487,4.31663633
13.8004605,0.012697083,-4.02768084,-1.41557875,4.26921976
13.8103945,0.025719124,-4.020962974,-1.088156893,4.165680033
13.8203295,0.001226892,-3.963729258,-0.418297529,3.985740076
13.8302635,0.087325388,-3.860641676,0.501082993,3.894003601
13.8401985,0.00710963,-3.664698556,1.656691318,4.021777241
13.8501335,-0.24758149,-3.373900734,3.096738619,4.586315824
13.8600675,-0.625582493,-2.870544344,4.436044534,5.320701964
13.8700025,-1.238436913,-2.055112699,5.287264647,5.806236444
13.8799365,-1.977885306,-0.630149168,5.651734462,6.020898662
13.8898715,-2.181116688,1.556740476,6.259303438,6.808787737
13.8998065,-1.752598958,4.473588921,7.418323322,8.838332526
13.9097405,-1.322307182,7.652339417,7.451691628,10.76264386
13.9196755,-1.072377889,9.847398791,5.771757919,11.46448633
13.9296105,-0.662883782,10.07837784,4.833595557,11.19717647
13.9395445,0.039398247,7.809661093,4.755942779,9.14392423
13.9494795,1.015112598,4.17654101,4.396809132,6.148648546
13.9594135,1.101948574,0.71689846,4.086800576,4.293037736
13.9693485,0.589211788,-2.125333081,4.032788383,4.596476191
13.9792835,0.078575615,-4.087977328,3.713481292,5.523375423
13.9892175,-0.583796536,-4.783879606,2.934571356,5.642519962
13.9991525,-1.453157782,-3.390793925,1.339086644,3.924576922
14.0090865,-2.212897329,0.444343366,0.183163446,2.264487682
14.0190215,-3.110979221,6.023858283,-2.211497651,7.131324014
14.0289565,-3.142077637,11.86263231,-7.207248777,14.23162437
14.0388905,-5.138099252,12.72365353,-12.80461407,18.76831278
14.0488255,-5.057217057,9.39581014,-14.61574702,18.09631879
14.0587595,-1.298381106,2.098926471,-11.12437456,11.39486705
14.0686945,2.997586799,-0.555068581,-3.478682546,4.625457815
14.0786295,1.88081831,-1.657200319,3.558563406,4.352834011
14.0885635,0.019836825,-1.370077472,6.10947263,6.261242816
14.0984985,-1.113227561,-1.786295146,5.203767577,5.613316572
14.1084335,-0.82926835,-2.504074781,2.345211194,3.529602251
14.1183675,0.658597554,-2.97702565,-0.777917663,3.146678939
14.1283025,1.768399304,-3.021986645,-3.130667088,4.696883626
14.1382365,2.600545068,-1.863617556,-4.712967498,5.696311761
14.1481715,3.238003256,0.085413203,-5.374781678,6.275367606
14.1581065,4.164804187,2.161522669,-4.445760267,6.463942954
14.1680405,3.856854727,4.015048515,-2.572218232,6.13288265
14.1779755,2.210278945,4.891220452,-0.337621448,5.378044139
14.1879095,1.66136646,3.475880853,1.124293562,4.013218438
14.1978445,1.975954556,1.083455731,1.784909063,2.874747483
14.2077795,2.372683752,-1.208930547,2.212723228,3.462265925
14.2177135,2.314317138,-3.532380744,1.214906986,4.39428908
14.2276485,1.846104414,-4.718100184,-0.0882779,5.067185001
14.2375835,0.984264734,-5.00727131,-1.047545349,5.209500389
14.2475175,0.163808906,-4.987135254,-1.761486725,5.29161477
14.2574525,-0.529926284,-4.39003104,-1.997452721,4.852114155
14.2673865,-1.2672115,-3.743117904,-1.88413719,4.377982364
14.2773215,-1.770021175,-3.63815629,-1.562933993,4.337270895
14.2872565,-1.785529745,-3.406936333,-0.690555584,3.907966052
14.2971905,-1.504616788,-3.157209939,0.032404611,3.497555766
14.3071255,-0.951761232,-2.898520932,0.38411054,3.074868118
14.3170595,-0.361684787,-2.740798722,0.557280144,2.820169264
14.3269945,-0.012965616,-2.66151574,0.490911176,2.706441931
14.3369295,0.321157589,-2.762887748,0.449566611,2.817587806
14.3468635,0.629964396,-2.886117234,0.491505838,2.994679585
14.3567985,0.598378176,-2.872601979,0.772697854,3.034297373
14.3667335,0.460151314,-2.666701636,1.79265984,3.246023128
14.3766675,0.519148696,-2.212167158,2.710585574,3.537014709
14.3866025,0.578586959,-1.612211841,2.831129433,3.308970196
14.3965365,0.593222978,-1.17598558,1.987862703,2.384628632
14.4064715,-0.066206725,-0.947202743,0.877263538,1.292736509
14.4164065,-0.878591514,-0.864451193,0.969084705,1.567904359
14.4263405,-1.020655758,-0.615082648,1.523682657,1.934340632
14.4362755,0.142962632,-0.048592701,1.814697265,1.820968349
14.4462095,1.581407247,0.891141978,1.883300453,2.615684137
14.4561445,2.676985134,2.075058721,1.738075497,3.80697052
14.4660795,3.457231451,3.040525827,1.735652557,4.920339054
14.4760135,4.575085475,3.765212778,2.84761975,6.573976925
14.4859485,4.567094962,4.409104072,3.653008218,7.324139824
14.4958835,4.413636834,5.08649582,3.055828575,7.395317309
14.5058175,4.537070387,6.373594869,1.101354789,7.900677289
14.5157525,3.385047866,6.920187911,0.238215566,7.707418273
14.5256865,1.758300285,6.814340444,0.521101374,7.056798298
14.5356215,1.460404967,6.872784534,-0.021037039,7.026264475
14.5455565,2.316168074,6.873080403,-0.924606178,7.311550133
14.5554905,1.786009802,6.428728266,-0.797724522,6.719727862
14.5654255,-0.245627058,6.208694032,-0.02046182,6.213584547
14.5753595,-2.595363558,5.909277415,0.461763318,6.470602516
14.5852945,-3.295278488,5.330517671,0.057819534,6.267106354
14.5952295,-3.265475814,5.506504244,-1.704698421,6.625022112
14.6051635,-3.564510609,7.037313488,-3.772068638,8.744027608
14.6150985,-4.034966763,8.882473723,-4.735214691,10.84442504
14.6250335,-5.053776555,9.607655933,-5.309189367,12.08450254
14.6349675,-5.822869601,8.71463466,-5.987091576,12.07045704
14.64490254,-5.488285489,5.72487202,-6.530568051,10.2734491
14.65483654,-3.925969108,3.017559133,-6.484822944,8.159155911
14.66477154,-2.249600301,1.113350791,-5.390144067,5.945914948
14.67470654,-1.446931812,0.065137398,-4.441204702,4.671418816
14.68464054,-1.401201908,-0.403359647,-3.474058568,3.767644984
14.69457554,-1.240804889,-0.738936616,-1.87323798,2.365300113
14.70450954,-1.361757761,-0.690857885,-0.191605656,1.538954692
14.71444454,-1.20418692,-0.876419858,0.433254706,1.551092372
14.72437954,-0.528808662,-1.023568549,0.265367112,1.182265147
14.73431354,0.189085798,-1.344815161,-0.714204063,1.534395223
14.74424854,1.373910175,-2.163025403,-1.850012839,3.16051508
14.75418354,2.418097761,-2.482796763,-2.757301903,4.428791069
14.76411754,3.094988548,-3.546221688,-4.644790717,6.612769705
14.77405254,3.650344226,-4.866504856,-5.370297448,8.114676652
14.78398654,3.284116153,-7.293108122,-5.336775945,9.615405477
14.79392154,2.346966821,-8.44683803,-5.130497287,10.1577226
14.80385654,1.074622635,-8.451032238,-5.369058423,10.06983357
14.81379054,-0.176982939,-8.263912566,-5.04829479,9.685497104
14.82372554,-0.657670258,-8.240993235,-4.247194671,9.294361852
14.83365954,-1.133482462,-7.99039736,-3.619848658,8.845028929
14.84359454,-0.992374384,-7.407856221,-3.600030105,8.295863877
14.85352954,-0.533763519,-6.625223363,-3.739604897,7.626475784
14.86346354,-0.543670311,-6.066033665,-3.553005043,7.050970619
14.87339854,-0.473759977,-5.75187914,-3.054415888,6.529779366
14.88333354,-0.367503205,-5.535508187,-2.189441954,5.964106435
14.89326754,-0.315644103,-5.548998883,-1.371452737,5.724674874
14.90320254,-0.332600444,-5.409832227,-0.284538962,5.427510498
14.91313654,-0.461055147,-5.248761317,0.782289627,5.326729228
14.92307154,-0.530170698,-4.826911604,2.167793223,5.31784581
14.93300654,-0.658936473,-4.07479478,3.87474633,5.6614317
14.94294054,-0.687256439,-2.670730952,5.090512857,5.789511756
14.95287554,-0.866905269,-0.550768538,6.025642269,6.11254738
14.96280954,-1.449040757,2.552885583,7.78282939,8.318015222
14.97274454,-1.482338165,6.186662309,9.293562219,11.26243383
14.98267954,-0.978651554,9.885952992,8.587329665,13.13133871
14.99261354,-1.148970713,12.99526722,7.027014787,14.81809841
15.00254854,-1.184328534,14.07806748,5.550132074,15.17888612
15.01248354,-0.573386153,11.92540685,4.184900482,12.65138302
15.02241754,0.642382274,6.848698098,2.361479025,7.272819523
15.03235254,0.90514986,2.193864203,2.35333707,3.342234548
15.04228654,0.080757796,-1.681549879,2.902999315,3.355821336
15.05222154,-0.619243526,-4.842969813,2.835627111,5.646113731
15.06215654,-1.849730857,-6.889766017,2.163454589,7.454590249
15.07209054,-3.565183623,-6.933520147,1.41936833,7.924572061
15.08202554,-4.885293714,-4.727981393,0.457784361,6.81391732
15.09195954,-5.092103299,-1.112747943,-1.730983409,5.492178763
15.10189454,-4.696367837,3.927008159,-3.80208415,7.206462921
15.11182954,-5.374662979,8.626780245,-6.6641436,12.15397669
15.12176354,-5.085577222,13.17626778,-9.7677258,17.17223327
15.13169854,-4.688119755,15.21761964,-12.49032389,20.23765316
15.14163354,-1.888010239,10.73790985,-10.47011322,15.11590426
15.15156754,1.354930552,4.40651551,-4.689143602,6.57581048
15.16150254,2.505555588,0.112831382,-0.121075956,2.511015554
15.17143654,1.309123026,-2.525081488,2.884051997,4.05062903
15.18137154,-0.814956851,-3.183662158,4.624490354,5.67325043
15.19130654,-1.988463796,-3.08114468,2.550516291,4.466830438
15.20124054,-1.789960181,-3.131151237,-0.431811029,3.632427051
15.21117554,-1.516137118,-3.036223446,-1.919179553,3.898791445
15.22110954,-0.515968213,-2.068206954,-3.020766623,3.697125126
15.23104454,1.349856046,-0.543287026,-3.883239411,4.146904925
15.24097954,3.18732193,1.284261981,-4.187087048,5.416645444
15.25091354,4.581835501,3.057478074,-3.814318864,6.700031129
15.26084854,4.548367208,4.020653656,-2.806521718,6.688038893
15.27078354,3.084018879,3.834657235,-1.432886508,5.125322653
15.28071754,1.340747253,2.861605706,-0.184404517,3.165500819
15.29065254,0.203706322,0.776373999,0.213500555,0.830563266
15.30058654,-0.047307337,-1.343039362,0.51742596,1.440042477
15.31052154,-0.014247472,-3.17738868,0.656558118,3.24454471
15.32045654,-0.558904208,-4.934955871,0.468761923,4.988577061
15.33039054,-1.126611399,-5.649213728,0.375771022,5.772700654
15.34032554,-1.71663098,-5.692853252,0.002668669,5.946041305
15.35025954,-1.815643637,-5.095708693,-0.671995937,5.451090481
15.36019454,-1.605139049,-4.272611933,-1.290816563,4.743194229
15.37012954,-1.094788512,-4.063889723,-1.775779367,4.568058004
15.38006354,-0.007783229,-3.772966186,-1.462588609,4.046541716
15.38999854,0.96764227,-3.516076952,-1.131155635,3.81819876
15.39993354,1.970207327,-3.270295089,-0.69560692,3.880775164
15.40986754,2.652405778,-3.233369923,-0.015578664,4.182126273
15.41980254,2.995768022,-3.285680868,0.816802305,4.520784314
15.42973654,2.705829156,-3.291505864,1.30020266,4.454890485
15.43967154,2.161027117,-3.147456198,1.784345684,4.214309937
15.44960654,1.833281909,-2.942947492,1.901383553,3.954380092
15.45954054,1.512381159,-2.778988642,1.76837343,3.624530208
15.46947554,0.84702649,-2.519423137,1.560318387,3.082132426
15.47940954,0.329721567,-2.111615514,1.50507097,2.613976858
15.48934454,-0.387190634,-1.682176116,1.536282238,2.310799901
15.49927954,-0.358441373,-1.056374352,1.250514776,1.675766748
15.50921354,-0.038553032,-0.648662623,0.342688937,0.734632726
15.51914854,0.004395041,-0.136276962,-0.40525641,0.42757863
15.52908254,-1.122046477,0.676394212,-0.247940582,1.33340615
15.53901754,-3.186592197,1.781954173,1.383493323,3.904328916
15.54895254,-4.284891378,2.9371453,3.846848094,6.464159411
15.55888654,-3.061409742,3.395513797,5.048880097,6.811235849
15.56882154,-0.522485848,3.530006189,4.062595149,5.407274221
15.57875654,1.797984315,3.889271398,2.713272954,5.071590454
15.58869054,3.136205278,4.218096587,2.754785846,5.934388547
15.59862554,3.462882493,4.607124708,4.444066329,7.277834758
15.60855954,3.079806252,5.217785107,5.874799308,8.439416738
15.61849454,2.720729031,5.766300713,4.027042909,7.541197847
15.62842954,3.138247418,6.421181849,1.321945531,7.268267551
15.63836354,2.463206544,7.151536506,0.9057932,7.617894867
15.64829775,1.904082481,6.708349135,1.325489236,7.098196949
15.65823175,3.525294211,5.836431633,0.201233096,6.821446198
15.66816675,4.085560381,4.984938455,-1.773534328,6.684821541
15.67810175,2.915526389,4.398180304,-1.857067505,5.594013214
15.68803575,1.386816588,3.904114555,-0.936097126,4.247546179
15.69797075,0.17206543,3.80768169,0.161422913,3.814984105
15.70790475,-0.210845115,4.088987727,1.153046368,4.253679844
15.71783975,-0.192670068,4.094959488,0.955558925,4.209383307
15.72777475,-0.470305881,4.820876108,-0.357869478,4.85696455
15.73770875,-1.44540452,5.951811816,-1.902133166,6.413374205
15.74764375,-2.036492241,7.162871334,-2.54035003,7.868125868
15.75757875,-2.510421934,7.589005301,-3.123866192,8.582176864
15.76751275,-2.756943469,6.822061692,-4.756779223,8.761747063
15.77744775,-2.74121709,5.359860753,-6.387077379,8.777080145
15.78738175,-2.788417277,3.641994402,-6.587802937,8.027362062
15.79731675,-2.739845626,2.190085148,-5.546293377,6.562362168
15.80725175,-2.509194018,0.878911357,-4.199862922,4.97065271
15.81718575,-2.248103122,-0.20142547,-2.80639688,3.601444615
15.82712075,-1.724873215,-0.998399209,-1.473453906,2.478518711
15.83705475,-1.269558134,-1.793886001,-0.132822427,2.201691767
15.84698975,-0.667055259,-2.186386784,1.17246234,2.569030523
15.85692475,0.064290428,-2.307459816,1.72736486,2.883104823
15.86685875,0.906012471,-2.26419042,0.449029325,2.479726636
15.87679375,2.148080358,-2.478904272,-1.652015008,3.672651522
15.88672875,3.214038151,-2.998791325,-3.590520194,5.675792976
15.89666275,3.806196497,-3.525809058,-5.542165827,7.591710172
15.90659775,3.745508831,-4.830459695,-6.616810389,9.008016263
15.91653175,2.540988546,-6.276003671,-6.269465899,9.227732523
15.92646675,1.705518785,-7.147085021,-6.679461551,9.929996235
15.93640175,0.705581612,-7.235593155,-6.584804485,9.808736097
15.94633575,-0.053418262,-7.053558222,-5.844804261,9.160637202
15.95627075,-0.552635262,-6.637670331,-4.883324372,8.258990863
15.96620475,-0.865473286,-5.894384556,-3.950834393,7.148559695
15.97613975,-1.131197662,-4.92836255,-3.293752365,6.034664052
15.98607475,-1.237721214,-3.909642513,-3.088815057,5.134007873
15.99600875,-1.030050333,-3.115496487,-3.186223238,4.573766563
16.00594375,-0.818660916,-2.816463447,-3.157176025,4.309342467
16.01587875,-0.728620958,-2.921051424,-2.907118093,4.185064579
16.02581275,-0.661800731,-3.169047042,-2.588910279,4.145273911
16.03574775,-0.518092981,-3.433110809,-2.382514091,4.21082457
16.04568175,-0.089704913,-3.759504726,-2.230513966,4.372312353
16.05561675,0.202333542,-4.15672655,-2.148963434,4.683733374
16.06555175,0.026598107,-4.702611494,-1.692858394,4.998102827
16.07548575,0.1977809,-5.142123306,-0.680363302,5.190707428
16.08542075,0.340722957,-5.570648199,0.386654736,5.594436109
16.09535475,0.167572576,-5.938338661,1.58052461,6.147357535
16.10528975,-0.040741791,-6.043340621,2.548474151,6.558837264
16.11522475,-0.395882958,-5.357729443,3.527511475,6.426921915
16.12515875,-0.547088885,-3.673536623,3.922227475,5.401670661
16.13509375,-0.923737282,-0.834085432,4.558925525,4.725758248
16.14502775,-2.303677983,3.076558124,6.670630501,7.698665691
16.15496275,-2.963680842,7.789323308,7.834148063,11.43813086
16.16489775,-2.614787716,12.87557588,6.707161565,14.75139266
16.17483175,-2.687019248,16.69791947,6.039789022,17.95883177
16.18476675,-1.232295144,15.79111455,5.689874096,16.83010747
16.19470175,1.11000516,9.922403365,5.185673953,11.25066284
16.20463575,1.906829064,4.083177348,4.653819403,6.47814552
16.21457075,1.333583391,0.035992536,5.01539894,5.189794471
16.22450475,0.5833042,-3.608770523,4.970320415,6.169890883
16.23443975,-0.0199966,-6.623741094,4.067720819,7.773075234
16.24437475,-0.419962377,-7.853228697,2.807197364,8.350444683
16.25430875,-1.140139225,-6.679587851,1.453196812,6.930266393
16.26424375,-1.945610284,-4.439431826,-0.730449382,4.901786472
16.27417775,-1.147099896,-0.765802817,-2.770224835,3.094582001
16.28411275,-0.739782854,3.347670125,-5.924798849,6.845247646
16.29404775,0.69258296,8.930198697,-8.949861714,12.66207505
16.30398175,-0.352687384,14.34727095,-11.12839042,18.16066203
16.31391675,-5.097973904,18.85229684,-14.56318991,24.36154622
16.32385075,-5.320308432,17.14707685,-10.34839525,20.72238428
16.33378575,-2.323680869,7.276538867,-1.149460856,7.724556358
16.34372075,0.545446987,-0.224622543,2.115668803,2.196365677
16.35365475,1.353868698,-4.395747862,3.042308643,5.514635219
16.36358975,0.5694922,-6.386364604,3.895762392,7.502462185
16.37352475,0.402376437,-6.978080024,2.862196274,7.552991138
16.38345875,0.662716113,-6.264232641,0.830624465,6.353718614
16.39339375,2.054904685,-4.769357461,-1.345853627,5.364767081
16.40332775,2.960535917,-2.589219596,-2.271018798,4.541624975
16.41326275,3.803576652,0.766110381,-2.805137975,4.787788584
16.42319775,4.632752762,3.912680726,-2.858956917,6.704110923
16.43313175,3.542121328,6.935745597,-2.498830121,8.178957297
16.44306675,1.509729154,9.54184669,-2.769700632,10.04974437
16.45300075,1.927757126,8.710429342,-2.758966021,9.338079051
16.46293575,4.805384203,3.997283505,-1.509317218,6.43024348
16.47287075,5.345805216,-0.584247356,0.700486787,5.423067409
16.48280475,2.832219646,-3.379902901,1.088580085,4.542050016
16.49273975,0.332102261,-4.862933376,1.534405282,5.110069716
16.50267375,-1.577100188,-5.49964429,1.122175409,5.830318171
16.51260875,-2.281356968,-5.278614276,0.098544002,5.751353685
16.52254375,-2.039371556,-4.32055033,-1.100043551,4.902681645
16.53247775,-2.134720494,-3.283166565,-1.495362253,4.191935418
16.54241275,-2.607535122,-2.679936224,-0.936883869,3.854743696
16.55234775,-2.846609352,-2.455615396,-0.157184851,3.762703663
16.56228175,-2.516360366,-2.999709338,0.257858702,3.923877765
16.57221675,-1.443827087,-3.719697466,0.46707734,4.017330848
16.58215075,-0.039609477,-4.125259175,0.605800193,4.169691361
16.59208575,1.251974094,-4.359072956,0.729136171,4.593538476
16.60202075,1.834309703,-4.54299771,0.850927752,4.972685222
16.61195475,1.689619767,-4.624618993,1.419863589,5.124249057
16.62188975,0.728190018,-4.679409158,2.075510126,5.170577632
16.63182375,0.21474455,-4.388104382,2.950027885,5.291903232
16.64175875,0.419925101,-3.970946476,3.085348243,5.046199242
16.65169375,0.944541967,-3.661040538,2.143225561,4.346123923
16.66162775,1.307761648,-3.420748626,0.700007608,3.728508058
16.67156275,1.103054429,-2.690526701,-0.151447563,2.911803456
16.68149675,0.106963098,-1.478538644,-0.044583923,1.483072943
16.69143175,-0.605732073,0.236621615,0.901510772,1.111585717
16.70136675,-0.689510686,1.958502663,1.530282995,2.579326213
16.71130075,-0.398806091,2.975800658,1.272660666,3.260996937
16.72123575,0.560357716,2.981139166,1.756791265,3.505354054
16.73117075,1.699920368,2.790576069,2.640422494,4.201056415
16.74110475,2.598236003,3.154077585,3.711922424,5.520634368
16.75103975,3.625712246,3.594002795,5.036433713,7.171353424
16.76097375,4.514852722,4.082151747,3.968988243,7.266410782
16.77090875,5.323322087,5.027661136,2.112010932,7.620743055
16.78084375,4.305545205,6.077281369,1.645819152,7.627567701
16.79077775,2.189158949,6.61301847,1.608888284,7.149332255
16.80071275,1.541709623,5.93129452,0.624173899,6.160090609
16.81064675,1.471106833,5.135950985,-0.011051238,5.342496604
16.82058175,1.305721262,4.644113025,0.206859305,4.82861104
16.83051675,0.058623417,3.918551915,0.459510422,3.945837762
16.84045075,-1.225301947,3.661134678,0.514208895,3.894827696
16.85038575,-1.251211471,3.534672267,-0.493005722,3.781863671
16.86031975,-0.308050909,4.105701993,-2.661376576,4.90251053
16.87025475,-0.324950531,5.907976994,-5.079937583,7.798432589
16.88018975,-1.800295719,8.120707823,-6.066333042,10.29501611
16.89012375,-3.901688253,9.880816798,-5.72300325,12.06675093
16.90005875,-5.037115499,10.73474651,-4.406162923,12.64996391
16.90999275,-4.730931898,9.691183993,-4.054274561,11.52119378
16.91992775,-3.798584007,7.145903884,-5.097949346,9.564636444
16.92986275,-2.768753675,4.398301926,-4.958385079,7.183080073
16.93979675,-1.728702703,2.277526749,-3.571327001,4.574922696
16.94973175,-1.668248925,0.806109429,-2.49055748,3.104149392
16.95966675,-2.176795596,-0.130139725,-1.407434455,2.595428127
16.96960075,-1.905023152,-0.760635633,-0.181806307,2.059304084
16.97953575,-1.786042254,-1.327220305,0.668775875,2.323514975
16.98946975,-1.223499908,-1.549609212,1.05365949,2.237954212
16.99940475,-0.051241709,-1.598065088,-0.453204529,1.661876073
17.00933975,1.450143103,-1.855553076,-2.436314907,3.388454303
17.01927375,2.69356696,-2.575242997,-4.030317934,5.489138558
17.02920875,3.740045777,-3.625782412,-5.015837481,7.231380653
17.03914275,3.916030888,-4.378981556,-5.674319918,8.167538424
17.04907775,3.618010878,-5.747989572,-6.44480577,9.362954034
17.05901275,3.100963817,-6.747862864,-6.218127345,9.685800819
17.06894675,1.795461241,-7.668289452,-5.78540649,9.772270588
17.07888175,0.804407158,-9.186886786,-5.132671866,10.55415938
17.08881575,0.067661202,-9.738854588,-4.243869359,10.62357256
17.09875075,-1.069619319,-9.593788676,-3.653930908,10.32163154
17.10868575,-1.846634903,-9.089015506,-3.115690615,9.78405802
17.11861975,-1.716149316,-8.126610003,-3.024511473,8.839379404
17.12855475,-1.027294833,-7.187707382,-3.351937423,7.997121768
17.13848975,-0.717774665,-6.470095562,-3.289576868,7.293740674
17.14842375,-0.729627702,-5.98383877,-2.633699366,6.578377867
17.15835875,-0.733889445,-6.060078276,-2.116624823,6.460901103
17.16829275,-0.688290226,-6.030342845,-1.484342006,6.248363742
17.17822775,-0.550144786,-5.993152215,-0.726036488,6.061984967
17.18816275,-0.329093722,-5.888087105,0.203346865,5.900781506
17.19809675,-0.485056652,-5.515109006,1.573228455,5.755584686
17.20803175,-0.808680596,-4.535157178,3.214815538,5.617530941
17.21796575,-1.16044485,-2.821286815,4.502427388,5.43857922
17.22790075,-1.704698421,-0.248162849,5.698440852,5.953134439
17.23783575,-2.456903538,2.716078448,6.743864538,7.674188298
17.24776975,-2.800283324,6.977964833,8.812081432,11.58388359
17.25770475,-2.324637035,11.77077489,9.180758904,15.10766074
17.26763875,-1.686571321,15.3500427,8.472882113,17.61414389
17.27757375,0.362228724,14.54538865,5.732092162,15.63829981
17.28750875,2.007186435,9.828066727,4.46212487,10.97862702
17.29744275,2.181591628,4.153317039,3.805341342,6.040695919
17.30737775,0.896058902,0.507238356,3.534727231,3.681644864
17.31731175,-0.981576477,-1.288425783,2.884163679,3.307859354
17.32724675,-2.531432734,-1.322131473,3.415789602,4.452392831
17.33718175,-3.006562859,0.657034666,3.193200136,4.434821517
17.34711575,-4.376442111,4.3276278,1.774296952,6.405445933
17.35705075,-5.896322324,9.116424329,-1.365873908,10.94264232
17.36698475,-5.296762279,14.02324047,-5.197537369,15.86572906
17.37691975,-4.549561209,13.47060492,-10.14019812,17.46365718
17.38685475,-2.685155156,5.32235028,-12.83216849,14.14927627
17.39678875,0.207042013,-2.124615628,-9.835778035,10.06475968
17.40672375,2.99957456,-6.85007921,-6.081834011,9.638969741
17.41665875,3.592640979,-7.304323667,-2.30102554,8.459014834
17.42659275,0.633536753,-3.449677141,3.491284758,4.948808993
17.43652775,-0.828740931,-0.26140153,6.023274146,6.085636674
17.44646175,1.055509841,0.068676717,2.609860852,2.816059514
17.45639675,2.812454011,-1.005039307,-1.953268236,3.568649377
17.46633175,3.23966445,-0.767430097,-4.188233687,5.350296826
17.47626575,2.789512168,0.834576014,-5.47635483,6.202286472
17.48620075,2.78961274,3.292261909,-5.004669299,6.608149704
17.49613475,1.884147569,5.48831531,-3.24679513,6.649307905
17.50606975,0.03858161,6.968535613,-1.434740953,7.114805601
17.51600475,-0.175557095,6.237317907,-0.498561673,6.25967401
17.52593875,1.1161356,3.365588332,0.066958074,3.546466817
17.53587375,2.216825342,-0.129994714,1.256881078,2.551658924
17.54580775,2.164357691,-3.059319363,1.526207193,4.046379564
17.55574275,0.742179847,-5.340730417,0.346745443,5.403190235
17.56567775,-0.257669033,-6.18549345,-0.456974814,6.207700744
17.57561175,-0.504982866,-6.2623551,-1.392066803,6.435056261
17.58554675,-0.377231693,-5.573697522,-1.636099325,5.821102028
17.59548075,-0.953845911,-5.402820246,-1.921724408,5.813201642
17.60541575,-1.021701825,-4.845164273,-1.499407357,5.173752398
17.61535075,-0.716286256,-4.471424866,-0.813717387,4.600961022
17.62528475,-0.093973526,-4.447376438,-0.207890736,4.453224311
17.63521975,0.677441156,-4.570645684,0.393633827,4.637313455
17.64515367,1.228996437,-4.608013485,0.59598323,4.806185237
17.65508867,1.50934967,-4.718929904,0.842636912,5.02558184
17.66502367,1.461922319,-4.602933424,1.012355197,4.934478292
17.67495767,1.589583994,-4.520680057,1.134542781,4.924480965
17.68489267,1.927253096,-4.347593703,0.96041745,4.851626241
17.69482767,1.743683269,-3.957715396,0.803372274,4.398789551
17.70476167,0.966738875,-3.40187206,0.719633203,3.609042741
17.71469667,0.330405984,-2.662963511,0.84146111,2.812223244
17.72463067,0.020270835,-1.887612775,1.265103579,2.272439209
17.73456567,-0.035031857,-1.064783233,1.828910823,2.116578693
17.74450067,0.224111771,-0.070872931,2.22143441,2.233835243
17.75443467,0.062141595,0.83878484,2.475815188,2.614781526
17.76436967,-0.195534107,1.318135486,2.421508588,2.763949816
17.77430367,-0.044146478,1.643565781,2.174373679,2.726015093
17.78423867,0.912890989,2.576514766,2.298437416,3.571360084
17.79417367,2.741009222,4.043237942,2.554447374,5.512359386
17.80410767,3.305795875,5.280232201,3.255983444,7.029265015
17.81404267,3.399779634,5.784736984,4.765295985,8.22980737
17.82397667,3.459617407,5.517287679,5.171993222,8.316184812
17.83391167,3.902203393,5.016639134,4.283802334,7.664517073
17.84384667,4.639658031,5.173988877,3.044383235,7.587150771
17.85378067,4.713663024,5.925729141,1.652272431,7.750025106
17.86371567,3.827349384,6.348343084,-0.01717912,7.412850892
17.87364967,2.288963318,6.447654533,-0.752329663,6.883138962
17.88358467,0.563711642,6.323899384,-0.189731623,6.351808586
17.89351967,-0.600259664,6.104469168,0.478577096,6.152551627
17.90345367,-1.645224051,6.518157921,0.925418941,6.785981512
17.91338867,-2.775021306,7.247204556,1.800530192,7.96646886
17.92332267,-3.451093921,7.33424153,1.661712615,8.274203097
17.93325767,-2.806377,6.125277654,-0.173983902,6.739810724
17.94319267,-2.212343743,5.492618276,-2.226937078,6.326339314
17.95312667,-2.525021554,5.863212465,-4.42489097,7.767409758
17.96306167,-3.151886049,6.185991048,-4.881169088,8.486853515
17.97299567,-4.422764338,5.645994835,-4.601340643,8.521175845
17.98293067,-4.788234027,4.528406568,-4.783158059,8.14323352
17.99286567,-4.420721613,3.426153792,-5.436991374,7.800140037
18.00279967,-3.455092832,2.316652808,-4.99477581,6.50017939
18.01273467,-1.799175977,1.73488818,-4.402297913,5.062321415
18.02266867,-0.749973747,1.14924217,-3.690918933,3.937778657
18.03260367,-0.480026292,0.308034829,-2.193144118,2.266096163
18.04253867,-0.617709948,-0.453457421,-0.553165312,0.945082576
18.05247267,-0.499622797,-0.731222969,0.454647329,0.995496943
18.06240767,-0.265003561,-0.926755614,0.12272604,0.971681294
18.07234167,-0.145681039,-1.024545618,-0.814819149,1.317135883
18.08227667,0.37911826,-1.091255332,-2.244257846,2.524135919
18.09221167,0.974277398,-1.644637576,-3.80708352,4.260039217
18.10214567,1.655682674,-2.168042314,-4.537334681,5.294251467
18.11208067,1.89330884,-2.596747887,-4.800406176,5.776817238
18.12201467,1.641996827,-3.924563438,-5.744723318,7.148440232
18.13194967,1.059421044,-4.863238601,-5.845209473,7.677234946
18.14188467,0.565710805,-5.702362579,-5.474368531,7.925003376
18.15181867,0.56524639,-7.578647543,-5.228995973,9.224846934
18.16175367,1.017127694,-9.711586098,-4.415138984,10.71647822
18.17168767,0.256397921,-9.373271463,-3.066956996,9.865606065
18.18162267,-0.124136534,-8.354085402,-2.436467519,8.703018256
18.19155767,0.409788076,-7.586303887,-2.152754184,7.896472853
18.20149167,1.04371323,-6.902560894,-2.205278553,7.321061242
18.21142667,1.228187913,-6.25133076,-1.862320644,6.637455838
18.22136067,1.31058483,-6.098798538,-1.370582086,6.386820137
18.23129567,1.210152031,-6.094559891,-0.691123933,6.251862162
18.24123067,0.999456532,-6.151480781,-0.087638653,6.232761001
18.25116467,0.640482953,-6.356232732,0.118041251,6.389510677
18.26109967,0.180127425,-6.251065296,0.946045579,6.324813472
18.27103367,-0.470281907,-5.781137438,2.027322053,6.144326639
18.28096867,-0.820005849,-4.623662388,3.194647029,5.679474722
18.29090367,-1.070099083,-2.40184791,4.403080856,5.128460437
18.30083767,-2.281844772,1.251631594,6.574184187,7.070593676
18.31077267,-4.091645286,6.197372653,9.837215281,12.32557477
18.32070667,-3.739746692,11.59029006,10.16636908,15.8642866
18.33064167,-2.995205228,16.42373885,8.123062497,18.56595261
18.34057667,-1.360143199,17.25340145,5.864953181,18.273684
18.35051067,1.660801473,10.76857148,3.339434614,11.39614921
18.36044567,3.497855859,3.95225819,1.633689834,5.52487854
18.37037967,2.585165137,-0.195099367,1.230578694,2.869750245
18.38031467,0.360391529,-2.057358615,2.096494614,2.95937429
18.39024967,-2.07474648,-1.053268896,3.588093599,4.276489682
18.40018367,-3.406158946,2.617861598,3.777906498,5.720812496
18.41011867,-5.075739866,8.42253057,2.374734955,10.11639869
18.42005267,-5.709183941,13.20886951,-2.73683314,14.64784185
18.42998767,-2.252242512,12.73103739,-9.020656292,15.76464872
18.43992267,-0.124092096,3.420490179,-13.33120847,13.76358497
18.44985667,0.843722959,-3.070720264,-11.57142226,12.00162508
18.45979167,0.873267771,-5.620158328,-11.82133693,13.1184139
18.46972567,-2.939001206,-2.724067499,-7.006306288,8.071344351
18.47966067,-6.663023858,1.04480739,2.208705021,7.096892791
18.48959567,-6.163868108,1.617460302,7.57413817,9.898334047
18.49952967,-2.992896747,0.227949609,6.426630285,7.093022542
18.50946467,0.72727566,-2.005194435,-0.664326436,2.234068983
18.51939867,2.621558792,-2.928376815,-4.969653248,6.336040931
18.52933367,4.023027918,-1.340616276,-6.609627669,7.852972912
18.53926867,5.116582083,1.347727075,-6.816256576,8.628854744
18.54920267,5.620728432,3.410257552,-5.285039197,8.43528802
18.55913767,5.190096787,3.985955109,-2.84821909,7.137036834
18.56907167,3.617246062,3.519811569,-0.184421474,5.050500355
18.57900667,1.301205457,2.617543509,1.794084222,3.42978248
18.58894167,0.133904454,1.26236065,2.26422141,2.595801111
18.59887567,0.91199176,-0.727838016,1.746659502,2.10054673
18.60881067,2.13064937,-2.619920402,0.860932777,3.4849469
18.61874467,2.404442319,-3.926747957,-0.512052515,4.632805863
18.62867967,1.526094926,-4.584608835,-1.364205698,5.020822749
18.63861467,0.171109776,-4.591875755,-1.306469413,4.777181578
18.64854988,-0.829228296,-4.29221063,-1.345713294,4.574017482
18.65848488,-1.39544664,-3.828669686,-1.073278652,4.214013521
18.66841888,-1.906113511,-3.539571065,-0.580681139,4.061898894
18.67835388,-2.133750148,-3.607399351,0.284937889,4.200881976
18.68828888,-1.960636312,-4.01960642,0.878661535,4.557781984
18.69822287,-1.385184338,-4.054903722,1.094626252,4.422576904
18.70815788,-0.898023274,-4.509643437,0.474727253,4.622628656
18.71809188,-0.23567199,-4.429423147,0.077578445,4.436366657
18.72802688,0.680821943,-3.867120976,0.052885873,3.92695048
18.73796187,1.832823487,-3.269554247,0.010957609,3.748245854
18.74789587,2.688615831,-3.049429382,-0.278808106,4.074973448
18.75783088,2.761689654,-3.141662777,-0.124676671,4.184796174
18.76776488,2.053983017,-3.281973149,0.560796476,3.912120483
18.77769988,0.90254551,-3.159791484,1.494519669,3.610049815
18.78763487,-0.081629214,-2.815091105,2.504189971,3.768603013
18.79756888,-0.25470793,-2.475997621,2.504647223,3.531104369
18.80750388,-0.026134715,-2.138370034,1.240686775,2.472369936
18.81743788,0.041556783,-1.52324704,0.175594261,1.533897603
18.82737288,-0.166546243,-0.321879866,-0.021297898,0.363039805
18.83730788,-0.301747281,1.345978172,0.310773738,1.413962156
18.84724188,-0.108308889,2.982960573,1.17472894,3.207767554
18.85717688,0.575952204,4.03066175,1.834911236,4.465966226
18.86711087,1.495178066,4.786913141,2.869836831,5.778067004
18.87704588,2.722843677,5.132861901,3.5848788,6.827261896
18.88698088,3.475699882,5.450730577,4.196815646,7.707412994
18.89691488,3.704473656,5.721969463,4.811625813,8.343608486
18.90684987,4.426974333,6.408661791,4.349854821,8.921338726
18.91678388,4.428127111,7.571502246,2.397581781,9.093093773
18.92671888,2.988919179,8.362953874,0.961106837,8.93288093
18.93665388,2.033595823,7.891924986,-0.178334376,8.151674374
18.94658788,2.79700479,6.603759404,-1.596561184,7.347236329
18.95652287,3.274858549,5.471518013,-2.327895834,6.788321361
18.96645688,2.31750007,4.480076407,-1.217278032,5.188801113
18.97639188,0.822011517,3.99312438,0.404902727,4.096912431
18.98632688,-1.041099378,3.008869001,1.544002901,3.538520247
18.99626088,-1.221092463,2.766173884,2.435686916,3.882699514
19.00619588,-0.312723711,3.409938294,1.775095389,3.856998694
19.01612988,0.370038996,4.803874744,-0.162912199,4.820859031
19.02606488,-0.002752065,6.385631948,-2.495879908,6.856071722
19.03599988,-1.187497578,7.700269629,-4.506111134,9.000518897
19.04593388,-2.399838806,7.90999756,-5.394430661,9.870520242
19.05586888,-3.220125687,6.800469679,-5.81156167,9.507357484
19.06580288,-3.390600967,5.07828399,-6.554925213,8.958358541
19.07573787,-2.703056991,3.595215508,-6.586917084,7.97618758
19.08567288,-1.94300608,1.945341166,-5.520179712,6.167009723
19.09560688,-1.363897988,0.388277339,-3.998022885,4.242070721
19.10554188,-1.040077066,-0.879197286,-2.470844177,2.82131514
19.11547588,-0.865703374,-1.871562753,-0.758955143,2.197317086
19.12541087,-0.515195686,-2.192480167,0.59896012,2.33048259
19.13534488,0.096104398,-2.387427506,0.90403275,2.554666586
19.14527988,0.523903067,-2.605293592,0.798665631,2.77486863
19.15521488,1.133818384,-2.586330487,-0.194369634,2.830623442
19.16514888,1.832498382,-2.681892702,-1.883471777,3.754738968
19.17508388,2.111744737,-3.02729884,-3.027549101,4.773893344
19.18501788,1.888797567,-3.886954731,-4.417462083,6.179801338
19.19495288,1.335153076,-4.489555913,-5.157631291,6.967058674
19.20488788,0.378381657,-5.183815123,-5.841485966,7.819083718
19.21482188,0.366232751,-6.497205593,-6.131504354,8.941093478
19.22475688,0.371838769,-7.323638189,-5.46856517,9.14763059
19.23469088,-0.055777321,-7.968372068,-5.00057157,9.407644793
19.24462587,-0.614920388,-7.937611036,-4.489085212,9.139785669
19.25456088,-0.902197747,-7.550626516,-4.156259943,8.66604975
19.26449488,-0.673828162,-6.766045951,-4.06111288,7.919978537
